"id:ID","uri","uuid","label","name","ordinal","description","data_type","role","core","value_domain","code_list"
"65","https://sdtm.d4k.dk/ig/AG/STUDYID","eed1b96d-bb8a-4daa-8016-86e8aba6cd95","Study Identifier","STUDYID","1","Unique identifier for a study.","Char","Identifier","Req","",""
"66","https://sdtm.d4k.dk/ig/AG/DOMAIN","ea1c587e-0547-4d7b-8a50-7a94745e40d7","Domain Abbreviation","DOMAIN","2","Two-character abbreviation for the domain.","Char","Identifier","Req","",""
"67","https://sdtm.d4k.dk/ig/AG/USUBJID","b6c64e36-e591-4c77-914f-48a4ac1c5ef4","Unique Subject Identifier","USUBJID","3","Identifier used to uniquely identify a subject across all studies for all applications or submissions involving the product.","Char","Identifier","Req","",""
"68","https://sdtm.d4k.dk/ig/AG/AGSEQ","608e5ecd-9fe9-4c74-a982-79c7b8e4a84e","Sequence Number","AGSEQ","4","Sequence number given to ensure uniqueness of subject records within a domain. May be any valid number.","Num","Identifier","Req","",""
"69","https://sdtm.d4k.dk/ig/AG/AGGRPID","4db72a3c-24a6-4c91-b385-6da20284b9da","Group ID","AGGRPID","5","Used to tie together a block of related records in a single domain for a subject.","Char","Identifier","Perm","",""
"70","https://sdtm.d4k.dk/ig/AG/AGSPID","a0f87913-b2fa-472a-a005-41d91cc29e4b","Sponsor-Defined Identifier","AGSPID","6","Sponsor-defined reference number. May be preprinted on the CRF as an explicit line identifier or defined in the sponsor's operational database. Example: Line number from the procedure or test page.","Char","Identifier","Perm","",""
"71","https://sdtm.d4k.dk/ig/AG/AGLNKID","2a5deb39-26f3-4e83-b424-15287b90443b","Link ID","AGLNKID","7","Identifier used to link related records across domains.This may be a one-to-one or a one-to-many relationship.","Char","Identifier","Perm","",""
"72","https://sdtm.d4k.dk/ig/AG/AGLNKGRP","1878136e-84be-40ec-bc01-28046f8f5a56","Link Group ID","AGLNKGRP","8","Identifier used to link related records across domains.This will usually be a many-to-one relationship.","Char","Identifier","Perm","",""
"73","https://sdtm.d4k.dk/ig/AG/AGTRT","56496e8b-91d3-424d-a502-6d181ee33587","Reported Agent Name","AGTRT","9","Verbatim medication name that is either preprinted or collected on a CRF.","Char","Topic","Req","",""
"74","https://sdtm.d4k.dk/ig/AG/AGMODIFY","17fdd250-5b2e-47d3-a12a-16b755be8660","Modified Reported Name","AGMODIFY","10","If AGTRT is modified to facilitate coding, then AGMODIFY will contain the modified text.","Char","Synonym Qualifier","Perm","",""
"75","https://sdtm.d4k.dk/ig/AG/AGDECOD","154b6308-ec2d-4c95-813a-1e1670a67f03","Standardized Agent Name","AGDECOD","11","Standardized or dictionary-derived text description of AGTRT or AGMODIFY. Equivalent to the generic medication name in WHO Drug. The sponsor is expected to provide the dictionary name and version used to map the terms utilizing the external codelist element in the Define-XML document. If an intervention term does not have a decode value in the dictionary, then AGDECOD will be left blank.","Char","Synonym Qualifier","Perm","",""
"76","https://sdtm.d4k.dk/ig/AG/AGCAT","f5547b25-a745-4aaa-9ac2-b78b71fe1599","Category for Agent","AGCAT","12","Used to define a category of agent. Examples: ""CHALLENGE AGENT"", ""PET TRACER"".","Char","Grouping Qualifier","Perm","",""
"77","https://sdtm.d4k.dk/ig/AG/AGSCAT","7ee56fe7-3881-4192-a7fa-568e30412da3","Subcategory for Agent","AGSCAT","13","Further categorization of agent.","Char","Grouping Qualifier","Perm","",""
"78","https://sdtm.d4k.dk/ig/AG/AGPRESP","c08ecdc1-91fb-413d-9ca1-00a52d7cd4b1","AG Pre-Specified","AGPRESP","14","Used to indicate whether (""Y""/null) information about the use of a specific agent was solicited on the CRF.","Char","Variable Qualifier","Perm","",""
"79","https://sdtm.d4k.dk/ig/AG/AGOCCUR","9659dd04-8d76-4de4-a9a8-651b030a3d51","AG Occurrence","AGOCCUR","15","When the use of specific agent is solicited, AGOCCUR is used to indicate whether (""Y""/""N"") use of the agent occurred. Values are null for agents not specifically solicited.","Char","Record Qualifier","Perm","",""
"80","https://sdtm.d4k.dk/ig/AG/AGSTAT","860004a2-7bd4-4122-b211-94cd4623e6af","Completion Status","AGSTAT","16","Used to indicate that a question about a prespecified agent was not answered. Should be null or have a value of ""NOT DONE"".","Char","Record Qualifier","Perm","",""
"81","https://sdtm.d4k.dk/ig/AG/AGREASND","79258e28-e8b4-45a4-b1d7-2e38863f3eb0","Reason Procedure Agent Not Collected","AGREASND","17","Describes the reason a response to a question about the occurrence of a procedure agent was not collected. Used in conjunction with AGSTAT when value is ""NOT DONE"".","Char","Record Qualifier","Perm","",""
"82","https://sdtm.d4k.dk/ig/AG/AGCLAS","8562b4f8-3997-491f-aefb-b66ab996c306","Agent Class","AGCLAS","18","Drug class. May be obtained from coding. When coding to a single class, populate with class value. If using a dictionary and coding to multiple classes, follow guidance in Section 4.2.8.3, Multiple Values for a Non-result Qualifier Variable, or omit AGCLAS.","Char","Variable Qualifier","Perm","",""
"83","https://sdtm.d4k.dk/ig/AG/AGCLASCD","9445f08f-7c25-46f9-9c38-01b587fe31b4","Agent Class Code","AGCLASCD","19","Class code corresponding to AGCLAS. Drug class. May be obtained from coding. When coding to a single class, populate with class code. If using a dictionary and coding to multiple classes, follow guidance in Section 4.2.8.3, Multiple Values for a Non-result Qualifier Variable, or omit AGCLASCD.","Char","Variable Qualifier","Perm","",""
"84","https://sdtm.d4k.dk/ig/AG/AGDOSE","35896615-d1bf-427d-8db5-2c578e7d3da2","Dose per Administration","AGDOSE","20","Amount of AGTRT taken.","Num","Record Qualifier","Perm","",""
"85","https://sdtm.d4k.dk/ig/AG/AGDOSTXT","c10c66dd-07e3-4776-9a5b-ba69bbc52c04","Dose Description","AGDOSTXT","21","Dosing amounts or a range of dosing information collected in text form. Units may be stored in AGDOSU. Examples: ""200-400"", ""15-20"".","Char","Record Qualifier","Perm","",""
"86","https://sdtm.d4k.dk/ig/AG/AGDOSU","8db9fa75-9a82-400c-af27-d939294e7b41","Dose Units","AGDOSU","22","Units for AGDOSE and AGDOSTXT. Examples: ""ng"", ""mg"", ""mg/kg"".","Char","Variable Qualifier","Perm","",""
"87","https://sdtm.d4k.dk/ig/AG/AGDOSFRM","e06da1f0-f8bb-4e98-a4ac-c950268e7262","Dose Form","AGDOSFRM","23","Dose form for AGTRT. Examples: ""TABLET"", ""AEROSOL"".","Char","Variable Qualifier","Perm","",""
"88","https://sdtm.d4k.dk/ig/AG/AGDOSFRQ","2771adc8-a37f-4c55-b311-84ff03079e8a","Dosing Frequency per Interval","AGDOSFRQ","24","Usually expressed as the number of repeated administrations of AGDOSE within a specific time period. Example: ""ONCE"".","Char","Record Qualifier","Perm","",""
"89","https://sdtm.d4k.dk/ig/AG/AGROUTE","4eab4325-6643-4488-9a5a-ce194f3bef23","Route of Administration","AGROUTE","25","Route of administration for AGTRT. Example: ""ORAL"".","Char","Variable Qualifier","Perm","",""
"90","https://sdtm.d4k.dk/ig/AG/VISITNUM","7540bab3-a30b-457e-b182-b47a3ae1ef21","Visit Number","VISITNUM","26","1. Clinical encounter number. \n 2. Numeric version of VISIT, used for sorting.","Num","Timing","Exp","",""
"91","https://sdtm.d4k.dk/ig/AG/VISIT","7e603260-9db4-4a30-9a29-24b27dae130b","Visit Name","VISIT","27","1. Protocol-defined description of clinical encounter. \n 2. May be used in addition to VISITNUM and/or VISITDY.","Char","Timing","Perm","",""
"92","https://sdtm.d4k.dk/ig/AG/VISITDY","1350d902-60f5-4276-aaab-844a3f9f0456","Planned Study Day of Visit","VISITDY","28","Planned study day of the visit based upon RFSTDTC in Demographics.","Num","Timing","Perm","",""
"93","https://sdtm.d4k.dk/ig/AG/TAETORD","6847c796-290e-41ea-84d6-14ce4beb9295","Planned Order of Element within Arm","TAETORD","29","Number that gives the planned order of the element within the arm for the element in which the agent administration started.","Num","Timing","Perm","",""
"94","https://sdtm.d4k.dk/ig/AG/EPOCH","8ce8a060-f1c2-4621-92a9-0b53e7a56d80","Epoch","EPOCH","30","Epoch associated with the start date/time of the agent administration started.","Char","Timing","Perm","",""
"95","https://sdtm.d4k.dk/ig/AG/AGSTDTC","ded09a99-c2f2-4221-8e6c-3ffdd2609672","Start Date/Time of Agent","AGSTDTC","31","The date/time when administration of the treatment indicated by AGTRT and the dosing variables began.","Char","Timing","Perm","ISO 8601 datetime or interval",""
"96","https://sdtm.d4k.dk/ig/AG/AGENDTC","b740afd1-85c9-46d0-86dc-adc4b9c7f62b","End Date/Time of Agent","AGENDTC","32","The date/time when administration of the treatment indicated by AGTRT and the dosing variables ended.","Char","Timing","Perm","ISO 8601 datetime or interval",""
"97","https://sdtm.d4k.dk/ig/AG/AGSTDY","85f347f5-127d-4b0b-88ae-2275d5f780f4","Study Day of Start of Agent","AGSTDY","33","Study day of start of agent relative to the sponsor-defined RFSTDTC.","Num","Timing","Perm","",""
"98","https://sdtm.d4k.dk/ig/AG/AGENDY","8b03c526-a100-43f6-9fa5-718140b9c483","Study Day of End of Agent","AGENDY","34","Study day of end of agent relative to the sponsor-defined RFSTDTC.","Num","Timing","Perm","",""
"99","https://sdtm.d4k.dk/ig/AG/AGDUR","3d8d9eea-c299-49b8-baf0-eaeea7ff8c67","Duration of Agent","AGDUR","35","Collected duration for an agent episode. Used only if collected on the CRF and not derived from start and end date/times.","Char","Timing","Perm","ISO 8601 duration",""
"100","https://sdtm.d4k.dk/ig/AG/AGSTRF","b0d1e53b-e4a9-415f-8c47-7198f8f722d4","Start Relative to Reference Period","AGSTRF","36","Describes the start of the agent relative to sponsor-defined reference period. The sponsor-defined reference period is a continuous period of time defined by a discrete starting point and a discrete ending point (represented by RFSTDTC and RFENDTC in Demographics). If information such as ""PRIOR"", ""ONGOING"", or ""CONTINUING"" was collected, this information may be translated into AGSTRF. \n Not all values of the codelist are allowable for this variable. See Section 4.4.7, Use of Relative Timing Variables.","Char","Timing","Perm","",""
"101","https://sdtm.d4k.dk/ig/AG/AGENRF","ece1fe06-de3a-4d42-a600-eb4061e9e353","End Relative to Reference Period","AGENRF","37","Describes the end of the agent relative to the sponsor-defined reference period. The sponsor-defined reference period is a continuous period of time defined by a discrete starting point and a discrete ending point (represented by RFSTDTC and RFENDTC in Demographics). If information such as ""PRIOR"", ""ONGOING"", or ""CONTINUING"" was collected, this information may be translated into AGENRF. \n Not all values of the codelist are allowable for this variable. See Section 4.4.7, Use of Relative Timing Variables.","Char","Timing","Perm","",""
"102","https://sdtm.d4k.dk/ig/AG/AGSTRTPT","aeeb1c11-1181-46b9-a6af-aef00332b959","Start Relative to Reference Time Point","AGSTRTPT","38","Identifies the start of the agent as being before or after the sponsor-defined reference time point defined by variable AGSTTPT. \n Not all values of the codelist are allowable for this variable. See Section 4.4.7, Use of Relative Timing Variables.","Char","Timing","Perm","",""
"103","https://sdtm.d4k.dk/ig/AG/AGSTTPT","03a9f5a7-3ef7-4693-ab48-47eed1cb0406","Start Reference Time Point","AGSTTPT","39","Description or date/time in ISO 8601 character format of the reference point referred to by AGSTRTPT. Examples: ""2003-12-15"", ""VISIT 1"".","Char","Timing","Perm","",""
"104","https://sdtm.d4k.dk/ig/AG/AGENRTPT","ca4a5ce0-1ff8-4fb4-b824-09e0a222f181","End Relative to Reference Time Point","AGENRTPT","40","Identifies the end of the agent as being before or after the reference time point defined by variable AGENTPT. Identifies the end of the agent as being before or after the sponsor-defined reference time point defined by variable AGENTPT. \n Not all values of the codelist are allowable for this variable. See Section 4.4.7, Use of Relative Timing Variables.","Char","Timing","Perm","",""
"105","https://sdtm.d4k.dk/ig/AG/AGENTPT","edcac744-1d27-427d-b8b8-3ed076898831","End Reference Time Point","AGENTPT","41","Description or date/time in ISO 8601 character format of the reference point referred to by AGENRTPT. Examples: ""2003-12-25"", ""VISIT 2"".","Char","Timing","Perm","",""
"106","https://sdtm.d4k.dk/ig/CM/STUDYID","22aa4c73-fc2e-4a9c-8656-e1b6d642425f","Study Identifier","STUDYID","1","Unique identifier for a study.","Char","Identifier","Req","",""
"107","https://sdtm.d4k.dk/ig/CM/DOMAIN","e7a2f87a-5fad-4e1a-967f-81a0ca39ea56","Domain Abbreviation","DOMAIN","2","Two-character abbreviation for the domain.","Char","Identifier","Req","",""
"108","https://sdtm.d4k.dk/ig/CM/USUBJID","24594c21-4eda-462a-beec-318546d84c3b","Unique Subject Identifier","USUBJID","3","Identifier used to uniquely identify a subject across all studies for all applications or submissions involving the product.","Char","Identifier","Req","",""
"109","https://sdtm.d4k.dk/ig/CM/CMSEQ","56ccc5f1-7761-4105-bb0c-49a762d5f5da","Sequence Number","CMSEQ","4","Sequence number to ensure uniqueness of subject records within a domain. May be any valid number.","Num","Identifier","Req","",""
"110","https://sdtm.d4k.dk/ig/CM/CMGRPID","fb3afffa-6ca8-487e-a300-1a4dd8e8ed5a","Group ID","CMGRPID","5","Used to tie together a block of related records in a single domain for a subject.","Char","Identifier","Perm","",""
"111","https://sdtm.d4k.dk/ig/CM/CMSPID","b2cb6565-ce2b-4fe6-b8e8-f8bc25c30fd5","Sponsor-Defined Identifier","CMSPID","6","Sponsor-defined reference number. Example: a number preprinted on the CRF as an explicit line identifier or record identifier defined in the sponsor's operational database. Example: line number on a concomitant medication page.","Char","Identifier","Perm","",""
"112","https://sdtm.d4k.dk/ig/CM/CMTRT","484e2be8-c96c-4281-bd9b-e524f62a5371","Reported Name of Drug, Med, or Therapy","CMTRT","7","Verbatim medication name that is either preprinted or collected on a CRF.","Char","Topic","Req","",""
"113","https://sdtm.d4k.dk/ig/CM/CMMODIFY","86fb05a2-ab08-4e2f-82bf-395464074a97","Modified Reported Name","CMMODIFY","8","If CMTRT is modified to facilitate coding, then CMMODIFY will contain the modified text.","Char","Synonym Qualifier","Perm","",""
"114","https://sdtm.d4k.dk/ig/CM/CMDECOD","5c674671-d2da-43e8-835e-ff297d633417","Standardized Medication Name","CMDECOD","9","Standardized or dictionary-derived text description of CMTRT or CMMODIFY. Equivalent to the generic drug name in WHO Drug. The sponsor is expected to provide the dictionary name and version used to map the terms utilizing the external codelist element in the Define-XML document. If an intervention term does not have a decode value in the dictionary, then CMDECOD will be left blank.","Char","Synonym Qualifier","Perm","",""
"115","https://sdtm.d4k.dk/ig/CM/CMCAT","e7e333d0-611b-4e39-b57a-60bf55d81b9c","Category for Medication","CMCAT","10","Used to define a category of medications/treatment. Examples: ""PRIOR"", ""CONCOMITANT"", ""ANTI-CANCER MEDICATION"", ""GENERAL CONMED"".","Char","Grouping Qualifier","Perm","",""
"116","https://sdtm.d4k.dk/ig/CM/CMSCAT","a2e31e33-dcce-446e-9d43-377bfaa24021","Subcategory for Medication","CMSCAT","11","A further categorization of medications/treatment. Examples: ""CHEMOTHERAPY"", ""HORMONAL THERAPY"", ""ALTERNATIVE THERAPY"".","Char","Grouping Qualifier","Perm","",""
"117","https://sdtm.d4k.dk/ig/CM/CMPRESP","18319e0e-8dc3-4a83-9080-dbbf6139dcb4","CM Pre-specified","CMPRESP","12","Used to indicate whether (""Y""/null) information about the use of a specific medication was solicited on the CRF.","Char","Variable Qualifier","Perm","",""
"118","https://sdtm.d4k.dk/ig/CM/CMOCCUR","de1fe5ac-65cc-40a4-9985-29fffc832321","CM Occurrence","CMOCCUR","13","When the use of a specific medication is solicited. CMOCCUR is used to indicate whether (""Y""/""N"") use of the medication occurred. Values are null for medications not specifically solicited.","Char","Record Qualifier","Perm","",""
"119","https://sdtm.d4k.dk/ig/CM/CMSTAT","f982bcbb-f478-434f-b735-3188eb0705aa","Completion Status","CMSTAT","14","Used to indicate that a question about the occurrence of a prespecified intervention was not answered. Should be null or have a value of ""NOT DONE"".","Char","Record Qualifier","Perm","",""
"120","https://sdtm.d4k.dk/ig/CM/CMREASND","2da8a822-7411-49e0-a658-513513f20684","Reason Medication Not Collected","CMREASND","15","Reason not done. Used in conjunction with CMSTAT when value is ""NOT DONE"".","Char","Record Qualifier","Perm","",""
"121","https://sdtm.d4k.dk/ig/CM/CMINDC","ed194961-1693-4b07-820c-27a79d810aed","Indication","CMINDC","16","Denotes why a medication was taken or administered. Examples: ""NAUSEA"", ""HYPERTENSION"".","Char","Record Qualifier","Perm","",""
"122","https://sdtm.d4k.dk/ig/CM/CMCLAS","71b6b358-d062-46b7-8228-b54bd6dd5ef1","Medication Class","CMCLAS","17","Drug class. May be obtained from coding. When coding to a single class, populate with class value. If using a dictionary and coding to multiple classes, then follow Section 4.2.8.3, Multiple Values for a Non-result Qualifier Variable, or omit CMCLAS.","Char","Variable Qualifier","Perm","",""
"123","https://sdtm.d4k.dk/ig/CM/CMCLASCD","f2c0ee9e-8108-4939-891a-d36c243db85f","Medication Class Code","CMCLASCD","18","Class code corresponding to CMCLAS. Drug class. May be obtained from coding. When coding to a single class, populate with class code. If using a dictionary and coding to multiple classes, then follow Section 4.2.8.3, Multiple Values for a Non-result Qualifier Variable, or omit CMCLASCD.","Char","Variable Qualifier","Perm","",""
"124","https://sdtm.d4k.dk/ig/CM/CMDOSE","072a98c9-0fa2-4cfd-8537-91888d1d346e","Dose per Administration","CMDOSE","19","Amount of CMTRT given. Not populated when CMDOSTXT is populated.","Num","Record Qualifier","Perm","",""
"125","https://sdtm.d4k.dk/ig/CM/CMDOSTXT","d70a9a42-e8b2-44e6-96c4-a1e0f32e1472","Dose Description","CMDOSTXT","20","Dosing amounts or a range of dosing information collected in text form. Units may be stored in CMDOSU. Examples: ""200-400"", ""15-20"". Not populated when CMDOSE is populated.","Char","Record Qualifier","Perm","",""
"126","https://sdtm.d4k.dk/ig/CM/CMDOSU","6de72649-ebfa-4d83-9ec7-607c91ad830f","Dose Units","CMDOSU","21","Units for CMDOSE, CMDOSTOT, or CMDOSTXT. Examples: ""ng"", ""mg"", ""mg/kg"".","Char","Variable Qualifier","Perm","",""
"127","https://sdtm.d4k.dk/ig/CM/CMDOSFRM","ff9c0ba8-b3af-44a7-a222-ccf68904a392","Dose Form","CMDOSFRM","22","Dose form for CMTRT. Examples: ""TABLET"", ""LOTION"".","Char","Variable Qualifier","Perm","",""
"128","https://sdtm.d4k.dk/ig/CM/CMDOSFRQ","bcf9bad1-ce99-4f9b-a9d4-845cf6737596","Dosing Frequency per Interval","CMDOSFRQ","23","Usually expressed as the number of repeated administrations of CMDOSE within a specific time period. Examples: ""BID"" (twice daily), ""Q12H"" (every 12 hours).","Char","Record Qualifier","Perm","",""
"129","https://sdtm.d4k.dk/ig/CM/CMDOSTOT","6b288872-1c43-4110-a0b7-75910e67845c","Total Daily Dose","CMDOSTOT","24","Total daily dose of CMTRT using the units in CMDOSU. Used when dosing is collected as total daily dose. Total dose over a period other than day could be recorded in a separate supplemental qualifier variable.","Num","Record Qualifier","Perm","",""
"130","https://sdtm.d4k.dk/ig/CM/CMDOSRGM","9d2b4dd4-ed5c-4e1f-8ced-0d6b45de5dfc","Intended Dose Regimen","CMDOSRGM","25","Text description of the (intended) schedule or regimen for the Intervention. Example: ""TWO WEEKS ON, TWO WEEKS OFF"".","Char","Record Qualifier","Perm","",""
"131","https://sdtm.d4k.dk/ig/CM/CMROUTE","3e34264c-71fe-47a0-abc1-b86ea4b4d83a","Route of Administration","CMROUTE","26","Route of administration for the intervention. Examples: ""ORAL"", ""INTRAVENOUS"".","Char","Variable Qualifier","Perm","",""
"132","https://sdtm.d4k.dk/ig/CM/CMADJ","658d633e-cb58-4bf4-85cf-dc2ba8115f6d","Reason for Dose Adjustment","CMADJ","27","Describes reason or explanation of why a dose is adjusted. Examples: ""ADVERSE EVENT"", ""INSUFFICIENT RESPONSE"", ""NON-MEDICAL REASON"".","Char","Record Qualifier","Perm","",""
"133","https://sdtm.d4k.dk/ig/CM/CMRSDISC","b1727ce4-5047-40f7-9608-359e8d88aefa","Reason the Intervention Was Discontinued","CMRSDISC","28","When dosing of a treatment is recorded over multiple successive records, this variable is applicable only for the (chronologically) last record for the treatment.","Char","Record Qualifier","Perm","",""
"134","https://sdtm.d4k.dk/ig/CM/TAETORD","3d971178-e8b8-49e2-a36d-735ce8a0ffc4","Planned Order of Element within Arm","TAETORD","29","Number that gives the planned order of the element within the arm for the element in which the medication administration started. Null for medications that started before study participation.","Num","Timing","Perm","",""
"135","https://sdtm.d4k.dk/ig/CM/EPOCH","ab666f58-59ab-4691-8742-a529b863d297","Epoch","EPOCH","30","Epoch associated with the start date/time of the medication administration. Null for medications that started before study participation.","Char","Timing","Perm","",""
"136","https://sdtm.d4k.dk/ig/CM/CMSTDTC","7ee97242-d52d-449b-a709-9e52d92061ed","Start Date/Time of Medication","CMSTDTC","31","Start date/time of the medication administration represented in ISO 8601 character format.","Char","Timing","Perm","ISO 8601 datetime or interval",""
"137","https://sdtm.d4k.dk/ig/CM/CMENDTC","378a7123-4446-4363-b795-b49d46893afe","End Date/Time of Medication","CMENDTC","32","End date/time of the medication administration represented in ISO 8601 character format.","Char","Timing","Perm","ISO 8601 datetime or interval",""
"138","https://sdtm.d4k.dk/ig/CM/CMSTDY","ce9a3a95-3e88-4745-9f21-fcec63db2a5d","Study Day of Start of Medication","CMSTDY","33","Study day of start of medication relative to the sponsor-defined RFSTDTC.","Num","Timing","Perm","",""
"139","https://sdtm.d4k.dk/ig/CM/CMENDY","dd4c539a-2f64-412a-979e-573b97a9c394","Study Day of End of Medication","CMENDY","34","Study day of end of medication relative to the sponsor-defined RFSTDTC.","Num","Timing","Perm","",""
"140","https://sdtm.d4k.dk/ig/CM/CMDUR","90c501cc-9653-4656-b4fd-ea9ae968e339","Duration","CMDUR","35","Collected duration for a treatment episode. Used only if collected on the CRF and not derived from start and end date/times.","Char","Timing","Perm","ISO 8601 duration",""
"141","https://sdtm.d4k.dk/ig/CM/CMSTRF","b888130d-88f1-4f09-ae14-3439be81d145","Start Relative to Reference Period","CMSTRF","36","Describes the start of the medication relative to sponsor-defined reference period. The sponsor-defined reference period is a continuous period of time defined by a discrete starting point and a discrete ending point (represented by RFSTDTC and RFENDTC in Demographics). If information such as ""PRIOR"" was collected, this information may be translated into CMSTRF. \n Not all values of the codelist are allowable for this variable. See Section 4.4.7, Use of Relative Timing Variables.","Char","Timing","Perm","",""
"142","https://sdtm.d4k.dk/ig/CM/CMENRF","e9b7a75a-14ec-4dd2-9302-abe2ce0ed785","End Relative to Reference Period","CMENRF","37","Describes the end of the medication relative to the sponsor-defined reference period. The sponsor-defined reference period is a continuous period of time defined by a discrete starting point and a discrete ending point (represented by RFSTDTC and RFENDTC in Demographics). If information such as ""PRIOR"", ""ONGOING, or ""CONTINUING"" was collected, this information may be translated into CMENRF. \n Not all values of the codelist are allowable for this variable. See Section 4.4.7, Use of Relative Timing Variables.","Char","Timing","Perm","",""
"143","https://sdtm.d4k.dk/ig/CM/CMSTRTPT","7f5618b4-5a47-4548-be10-20c01bff6f43","Start Relative to Reference Time Point","CMSTRTPT","38","Identifies the start of the medication as being before or after the sponsor-defined reference time point defined by variable CMSTTPT. \n Not all values of the codelist are allowable for this variable. See Section 4.4.7, Use of Relative Timing Variables.","Char","Timing","Perm","",""
"144","https://sdtm.d4k.dk/ig/CM/CMSTTPT","1fa7a634-e3be-467e-89f2-2d34b9445110","Start Reference Time Point","CMSTTPT","39","Description or date/time in ISO 8601 character format of the sponsor-defined reference point referred to by CMSTRTPT. Examples: ""2003-12-15"", ""VISIT 1"".","Char","Timing","Perm","",""
"145","https://sdtm.d4k.dk/ig/CM/CMENRTPT","f79d2488-00c9-4a67-a888-4a32f0853d7b","End Relative to Reference Time Point","CMENRTPT","40","Identifies the end of the medication as being before or after the sponsor-defined reference time point defined by variable CMENTPT. \n Not all values of the codelist are allowable for this variable. See Section 4.4.7, Use of Relative Timing Variables.","Char","Timing","Perm","",""
"146","https://sdtm.d4k.dk/ig/CM/CMENTPT","7916f32f-fc9e-4171-b5e5-b0fbda7fed6c","End Reference Time Point","CMENTPT","41","Description or date/time in ISO 8601 character format of the sponsor-defined reference point referred to by CMENRTPT. Examples: ""2003-12-25"", ""VISIT 2"".","Char","Timing","Perm","",""
"147","https://sdtm.d4k.dk/ig/EC/STUDYID","4ca1eb8c-d71f-49da-82df-ba762a4e516f","Study Identifier","STUDYID","1","Unique identifier for a study.","Char","Identifier","Req","",""
"148","https://sdtm.d4k.dk/ig/EC/DOMAIN","299ccd21-7fd7-4118-963c-fff7f0f81690","Domain Abbreviation","DOMAIN","2","Two-character abbreviation for the domain.","Char","Identifier","Req","",""
"149","https://sdtm.d4k.dk/ig/EC/USUBJID","fa300c8b-8aeb-4fe4-8f38-d28e9f6a94dd","Unique Subject Identifier","USUBJID","3","Identifier used to uniquely identify a subject across all studies for all applications or submissions involving the product.","Char","Identifier","Req","",""
"150","https://sdtm.d4k.dk/ig/EC/ECSEQ","85e258ed-f6c8-45fe-8cd5-bd6cdc7ee72f","Sequence Number","ECSEQ","4","Sequence number given to ensure uniqueness of subject records within a domain. May be any valid number.","Num","Identifier","Req","",""
"151","https://sdtm.d4k.dk/ig/EC/ECGRPID","e464ca01-b781-4650-9f99-404f74e0c854","Group ID","ECGRPID","5","Used to tie together a block of related records in a single domain for a subject.","Char","Identifier","Perm","",""
"152","https://sdtm.d4k.dk/ig/EC/ECREFID","797335b5-afc6-412f-be80-83c9cb68365e","Reference ID","ECREFID","6","Internal or external identifier (e.g., kit number, bottle label, vial identifier).","Char","Identifier","Perm","",""
"153","https://sdtm.d4k.dk/ig/EC/ECSPID","b658fc19-fcec-44e4-9114-eac3a586fbd5","Sponsor-Defined Identifier","ECSPID","7","Sponsor-defined reference number. May be preprinted on the CRF as an explicit line identifier or defined in the sponsor's operational database. Example: Line number on a CRF page.","Char","Identifier","Perm","",""
"154","https://sdtm.d4k.dk/ig/EC/ECLNKID","026e75f2-adb7-4885-b035-b31b5eda1662","Link ID","ECLNKID","8","Identifier used to link related records across domains.","Char","Identifier","Perm","",""
"155","https://sdtm.d4k.dk/ig/EC/ECLNKGRP","2756b600-d009-45e6-9da6-2603b54d846a","Link Group ID","ECLNKGRP","9","Identifier used to link related, grouped records across domains.","Char","Identifier","Perm","",""
"156","https://sdtm.d4k.dk/ig/EC/ECTRT","21eff232-d5ed-4244-b7be-7cf431695e2a","Name of Treatment","ECTRT","10","Name of the intervention treatment known to the subject and/or administrator.","Char","Topic","Req","",""
"157","https://sdtm.d4k.dk/ig/EC/ECMOOD","4413a3d5-b3cf-4dde-b30c-22855081499c","Mood","ECMOOD","11","Mode or condition of the record specifying whether the intervention (activity) is intended to happen or has happened. Values align with BRIDG pillars (e.g., scheduled context, performed context) and HL7 activity moods (e.g., intent, event). Examples: ""SCHEDULED"", ""PERFORMED"".","Char","Record Qualifier","Perm","",""
"158","https://sdtm.d4k.dk/ig/EC/ECCAT","b1d280bd-4235-438d-8f7d-375b125b9941","Category of Treatment","ECCAT","12","Used to define a category of related ECTRT values.","Char","Grouping Qualifier","Perm","",""
"159","https://sdtm.d4k.dk/ig/EC/ECSCAT","a59d5bc4-ee70-4acf-a526-7d511345cd1f","Subcategory of Treatment","ECSCAT","13","A further categorization of ECCAT values.","Char","Grouping Qualifier","Perm","",""
"160","https://sdtm.d4k.dk/ig/EC/ECPRESP","1d9c0ec4-f087-4723-89ea-104d92e21dfb","Pre-Specified","ECPRESP","14","Used when a specific intervention is prespecified. Values should be ""Y"" or null.","Char","Variable Qualifier","Perm","",""
"161","https://sdtm.d4k.dk/ig/EC/ECOCCUR","2e492bef-e2f6-409e-af20-3c84dcb50462","Occurrence","ECOCCUR","15","Used to indicate whether a treatment occurred when information about the occurrence is solicited. ECOCCUR = ""N"" when a treatment was not taken, not given, or missed.","Char","Record Qualifier","Perm","",""
"162","https://sdtm.d4k.dk/ig/EC/ECREASOC","64ffc5b2-b2e1-46ea-afe1-741abd8a511f","Reason for Occur Value","ECREASOC","16","The reason for the value in --OCCUR. If --OCCUR = ""N"", this is the reason the exposure did not occur.","Char","Record Qualifier","Perm","",""
"163","https://sdtm.d4k.dk/ig/EC/ECDOSE","60329d50-f038-485f-82ab-42f1fe07900c","Dose","ECDOSE","17","Amount of ECTRT when numeric. Not populated when ECDOSTXT is populated.","Num","Record Qualifier","Exp","",""
"164","https://sdtm.d4k.dk/ig/EC/ECDOSTXT","c6dd33dc-07aa-4f39-9dc1-99339a32eafe","Dose Description","ECDOSTXT","18","Amount of ECTRT when non-numeric. Dosing amounts or a range of dosing information collected in text form. Example: ""200-400"". Not populated when ECDOSE is populated.","Char","Record Qualifier","Perm","",""
"165","https://sdtm.d4k.dk/ig/EC/ECDOSU","ff2ecfac-57c0-47b1-a8f3-e477812d00d9","Dose Units","ECDOSU","19","Units for ECDOSE, ECDOSTOT, or ECDOSTXT.","Char","Variable Qualifier","Exp","",""
"166","https://sdtm.d4k.dk/ig/EC/ECDOSFRM","4dbce995-b0a7-4a34-ac33-82986b7db2ed","Dose Form","ECDOSFRM","20","Dose form for ECTRT. Examples: ""TABLET"", ""LOTION"".","Char","Variable Qualifier","Exp","",""
"167","https://sdtm.d4k.dk/ig/EC/ECDOSFRQ","2ff209e5-1e17-4281-b476-d9b74d7b0bb0","Dosing Frequency per Interval","ECDOSFRQ","21","Usually expressed as the number of repeated administrations of ECDOSE within a specific time period. Examples: ""Q2H"", ""QD"", ""BID"".","Char","Record Qualifier","Perm","",""
"168","https://sdtm.d4k.dk/ig/EC/ECDOSTOT","57b44025-8bb7-45b9-b2f6-8df7fa274a7b","Total Daily Dose","ECDOSTOT","22","Total daily dose of ECTRT using the units in ECDOSU. Used when dosing is collected as total daily dose.","Num","Record Qualifier","Perm","",""
"169","https://sdtm.d4k.dk/ig/EC/ECDOSRGM","55310bc1-5521-4948-a1a7-4a86a9cf734b","Intended Dose Regimen","ECDOSRGM","23","Text description of the intended schedule or regimen for the Intervention. Example: ""TWO WEEKS ON"", ""TWO WEEKS OFF"".","Char","Record Qualifier","Perm","",""
"170","https://sdtm.d4k.dk/ig/EC/ECROUTE","85a391b3-2903-4550-9def-31b0f0fb86ed","Route of Administration","ECROUTE","24","Route of administration for the intervention. Examples: ""ORAL"", ""INTRAVENOUS"".","Char","Variable Qualifier","Perm","",""
"171","https://sdtm.d4k.dk/ig/EC/ECLOT","e768d9c1-7b27-45b5-8653-514868cc4eca","Lot Number","ECLOT","25","Lot number of the ECTRT product.","Char","Record Qualifier","Perm","",""
"172","https://sdtm.d4k.dk/ig/EC/ECLOC","43936171-7b7b-42c0-9256-0c11efca226e","Location of Dose Administration","ECLOC","26","Specifies location of administration. Example: ""ARM"", ""LIP"".","Char","Record Qualifier","Perm","",""
"173","https://sdtm.d4k.dk/ig/EC/ECLAT","1a003710-a963-4636-a76e-7c25375de123","Laterality","ECLAT","27","Qualifier for anatomical location further detailing laterality of the intervention administration. Examples: ""LEFT"", ""RIGHT"".","Char","Variable Qualifier","Perm","",""
"174","https://sdtm.d4k.dk/ig/EC/ECDIR","c06eee71-38a7-4212-a31b-9bf8a2e5e2c7","Directionality","ECDIR","28","Qualifier for anatomical location further detailing directionality. Examples: ""ANTERIOR"", ""LOWER"", ""PROXIMAL"", ""UPPER"".","Char","Variable Qualifier","Perm","",""
"175","https://sdtm.d4k.dk/ig/EC/ECPORTOT","95304cec-b6ae-49a9-9e06-6365ec413561","Portion or Totality","ECPORTOT","29","Qualifier for anatomical location further detailing distribution (i.e., arrangement of, apportioning of). Examples: ""ENTIRE"", ""SINGLE"", ""SEGMENT"".","Char","Variable Qualifier","Perm","",""
"176","https://sdtm.d4k.dk/ig/EC/ECFAST","40c010d1-8b3c-4c16-8223-cb939966e9cd","Fasting Status","ECFAST","30","Indicator used to identify fasting status. Examples: ""Y"", ""N"".","Char","Record Qualifier","Perm","",""
"177","https://sdtm.d4k.dk/ig/EC/ECPSTRG","98982c61-33d2-4f33-9c05-ce3ca056b707","Pharmaceutical Strength","ECPSTRG","31","Amount of an active ingredient expressed quantitatively per dosage unit, per unit of volume, or per unit of weight, according to the pharmaceutical dose form.","Num","Record Qualifier","Perm","",""
"178","https://sdtm.d4k.dk/ig/EC/ECPSTRGU","9b0c479d-32f1-482c-b2af-e9d0dc44435a","Pharmaceutical Strength Units","ECPSTRGU","32","Unit for ECPSTRG. Examples: ""mg/TABLET"", ""mg/mL"".","Char","Variable Qualifier","Perm","",""
"179","https://sdtm.d4k.dk/ig/EC/ECADJ","9e0404fb-5789-434f-9168-9c9631cf6474","Reason for Dose Adjustment","ECADJ","33","Describes reason or explanation of why a dose is adjusted.","Char","Record Qualifier","Perm","",""
"180","https://sdtm.d4k.dk/ig/EC/TAETORD","77d5905d-32ab-4b58-a98b-03b0d3ddda7b","Planned Order of Element within Arm","TAETORD","34","Number that gives the planned order of the element within the arm.","Num","Timing","Perm","",""
"181","https://sdtm.d4k.dk/ig/EC/EPOCH","57e581dd-f24d-4a08-896b-8a4fe3d066ec","Epoch","EPOCH","35","Trial epoch of the exposure as collected record. Examples: ""RUN-IN"", ""TREATMENT"".","Char","Timing","Perm","",""
"182","https://sdtm.d4k.dk/ig/EC/ECSTDTC","47411a91-ca65-46bf-ac95-9c859f3e4ac2","Start Date/Time of Treatment","ECSTDTC","36","The date/time when administration of the treatment indicated by ECTRT and ECDOSE began.","Char","Timing","Exp","ISO 8601 datetime or interval",""
"183","https://sdtm.d4k.dk/ig/EC/ECENDTC","4fbc7384-5e82-40a8-a446-e84ce0b53da2","End Date/Time of Treatment","ECENDTC","37","The date/time when administration of the treatment indicated by ECTRT and ECDOSE ended. For administrations considered given at a point in time (e.g., oral tablet, pre-filled syringe injection), where only an administration date/time is collected, ECSTDTC should be copied to ECENDTC as the standard representation.","Char","Timing","Exp","ISO 8601 datetime or interval",""
"184","https://sdtm.d4k.dk/ig/EC/ECSTDY","56a0610c-922b-4930-9383-1bd46c648df4","Study Day of Start of Treatment","ECSTDY","38","Study day of ECSTDTC relative to the sponsor-defined DM.RFSTDTC.","Num","Timing","Perm","",""
"185","https://sdtm.d4k.dk/ig/EC/ECENDY","91c11fe1-e2e8-49a2-a824-25d06f8f8941","Study Day of End of Treatment","ECENDY","39","Study day of ECENDTC relative to the sponsor-defined DM.RFSTDTC.","Num","Timing","Perm","",""
"186","https://sdtm.d4k.dk/ig/EC/ECDUR","817fd23d-6f89-49c9-9b4c-3f106778d28a","Duration of Treatment","ECDUR","40","Collected duration of administration. Used only if collected on the CRF and not derived from start and end date/times.","Char","Timing","Perm","ISO 8601 duration",""
"187","https://sdtm.d4k.dk/ig/EC/ECTPT","d76344a7-8f23-409a-8b76-e7f66224bd9a","Planned Time Point Name","ECTPT","41","Text description of time when administration should occur. This may be represented as an elapsed time relative to a fixed reference point, such as time of last dose. See ECTPTNUM and ECTPTREF.","Char","Timing","Perm","",""
"188","https://sdtm.d4k.dk/ig/EC/ECTPTNUM","047682c0-668d-4894-89fa-3ddf98bc3d89","Planned Time Point Number","ECTPTNUM","42","Numerical version of ECTPT to aid in sorting.","Num","Timing","Perm","",""
"189","https://sdtm.d4k.dk/ig/EC/ECELTM","896cbe07-b5e4-46d1-bc32-c737873d395c","Planned Elapsed Time from Time Point Ref","ECELTM","43","Planned elapsed time relative to the planned fixed reference (ECTPTREF). This variable is useful where there are repetitive measures. Not a clock time.","Char","Timing","Perm","ISO 8601 duration",""
"190","https://sdtm.d4k.dk/ig/EC/ECTPTREF","2bdfd1ab-9fc0-42dd-8185-9052cafcec2e","Time Point Reference","ECTPTREF","44","Name of the fixed reference point referred to by ECELTM, ECTPTNUM, and ECTPT. Examples: ""PREVIOUS DOSE"", ""PREVIOUS MEAL"".","Char","Timing","Perm","",""
"191","https://sdtm.d4k.dk/ig/EC/ECRFTDTC","39d92778-36e9-470a-8bbd-917febf8b580","Date/Time of Reference Time Point","ECRFTDTC","45","Date/time for a fixed reference time point defined by ECTPTREF.","Char","Timing","Perm","ISO 8601 datetime or interval",""
"192","https://sdtm.d4k.dk/ig/EX/STUDYID","f4a603fa-df2a-4d1a-913e-33fb590a6c64","Study Identifier","STUDYID","1","Unique identifier for a study.","Char","Identifier","Req","",""
"193","https://sdtm.d4k.dk/ig/EX/DOMAIN","f4d1262e-01f7-4e4a-b492-734206ebba7e","Domain Abbreviation","DOMAIN","2","Two-character abbreviation for the domain.","Char","Identifier","Req","",""
"194","https://sdtm.d4k.dk/ig/EX/USUBJID","0fdda12b-eaad-4b8f-8b89-a5d7567fdb27","Unique Subject Identifier","USUBJID","3","Identifier used to uniquely identify a subject across all studies for all applications or submissions involving the product.","Char","Identifier","Req","",""
"195","https://sdtm.d4k.dk/ig/EX/EXSEQ","eef9c0de-6ed0-48b3-b02c-13653ef19dcd","Sequence Number","EXSEQ","4","Sequence number given to ensure uniqueness of subject records within a domain. May be any valid number.","Num","Identifier","Req","",""
"196","https://sdtm.d4k.dk/ig/EX/EXGRPID","b3f11c3a-9f1f-4749-93ca-1cb8b68c2cdc","Group ID","EXGRPID","5","Used to tie together a block of related records in a single domain for a subject.","Char","Identifier","Perm","",""
"197","https://sdtm.d4k.dk/ig/EX/EXREFID","1702f593-11d5-4977-a5a5-e8a83e8f6500","Reference ID","EXREFID","6","Internal or external identifier (e.g., kit number, bottle label, vial identifier).","Char","Identifier","Perm","",""
"198","https://sdtm.d4k.dk/ig/EX/EXSPID","62b8ed26-4e42-4f5c-8ad7-b128c4da1acb","Sponsor-Defined Identifier","EXSPID","7","Sponsor-defined reference number. May be preprinted on the CRF as an explicit line identifier or defined in the sponsor's operational database. Example: Line number on a CRF page.","Char","Identifier","Perm","",""
"199","https://sdtm.d4k.dk/ig/EX/EXLNKID","0683d0c1-b909-4d0f-85fc-64ea85404b7a","Link ID","EXLNKID","8","Identifier used to link related records across domains.","Char","Identifier","Perm","",""
"200","https://sdtm.d4k.dk/ig/EX/EXLNKGRP","4f518aba-4d61-4f92-a8bb-2594beedc20a","Link Group ID","EXLNKGRP","9","Identifier used to link related, grouped records across domains.","Char","Identifier","Perm","",""
"201","https://sdtm.d4k.dk/ig/EX/EXTRT","2f2d7567-ba34-4854-8726-391012762f87","Name of Treatment","EXTRT","10","Name of the protocol-specified study treatment given during the dosing period for the observation.","Char","Topic","Req","",""
"202","https://sdtm.d4k.dk/ig/EX/EXCAT","4e33c9ed-9382-46fb-bbfe-239feea21c9f","Category of Treatment","EXCAT","11","Used to define a category of EXTRT values.","Char","Grouping Qualifier","Perm","",""
"203","https://sdtm.d4k.dk/ig/EX/EXSCAT","85dcb57b-49d0-4996-b2a1-15972c39fba0","Subcategory of Treatment","EXSCAT","12","A further categorization of EXCAT values.","Char","Grouping Qualifier","Perm","",""
"204","https://sdtm.d4k.dk/ig/EX/EXDOSE","93f9b458-f0cc-45c4-bff6-2d807ed7faeb","Dose","EXDOSE","13","Amount of EXTRT when numeric. Not populated when EXDOSTXT is populated.","Num","Record Qualifier","Exp","",""
"205","https://sdtm.d4k.dk/ig/EX/EXDOSTXT","fdda46d4-82e2-4f4d-a66b-a2bf88ac6f53","Dose Description","EXDOSTXT","14","Amount of EXTRT when non-numeric. Dosing amounts or a range of dosing information collected in text form. Example: ""200-400"". Not populated when EXDOSE is populated.","Char","Record Qualifier","Perm","",""
"206","https://sdtm.d4k.dk/ig/EX/EXDOSU","aab819ef-8658-416b-aefe-b760e56d4cf7","Dose Units","EXDOSU","15","Units for EXDOSE, EXDOSTOT, or EXDOSTXT representing protocol-specified values. Examples: ""ng"", ""mg"", ""mg/kg"", ""mg/m2"".","Char","Variable Qualifier","Exp","",""
"207","https://sdtm.d4k.dk/ig/EX/EXDOSFRM","3295b686-68d8-4084-8853-8bd82a4a8b9a","Dose Form","EXDOSFRM","16","Dose form for EXTRT. Examples: ""TABLET"", ""LOTION"".","Char","Variable Qualifier","Exp","",""
"208","https://sdtm.d4k.dk/ig/EX/EXDOSFRQ","dfbc91c7-0f89-445c-8734-75fe312b5d9f","Dosing Frequency per Interval","EXDOSFRQ","17","Usually expressed as the number of repeated administrations of EXDOSE within a specific time period. Examples: ""Q2H"", ""QD"", ""BID"".","Char","Record Qualifier","Perm","",""
"209","https://sdtm.d4k.dk/ig/EX/EXDOSRGM","c350fc10-b224-40a6-821a-837fa6bef09b","Intended Dose Regimen","EXDOSRGM","18","Text description of the intended schedule or regimen for the Intervention. Example: ""TWO WEEKS ON, TWO WEEKS OFF"".","Char","Record Qualifier","Perm","",""
"210","https://sdtm.d4k.dk/ig/EX/EXROUTE","72415021-8109-4890-a079-e71d1c5d19e2","Route of Administration","EXROUTE","19","Route of administration for the intervention. Examples: ""ORAL"", ""INTRAVENOUS"".","Char","Variable Qualifier","Perm","",""
"211","https://sdtm.d4k.dk/ig/EX/EXLOT","a0443e97-b277-4f46-b617-0ac50bafb80b","Lot Number","EXLOT","20","Lot number of the intervention product.","Char","Record Qualifier","Perm","",""
"212","https://sdtm.d4k.dk/ig/EX/EXLOC","91e2f58a-7166-4468-bb1b-8e546683917f","Location of Dose Administration","EXLOC","21","Specifies location of administration. Examples: ""ARM"", ""LIP"".","Char","Record Qualifier","Perm","",""
"213","https://sdtm.d4k.dk/ig/EX/EXLAT","3e04caa9-b216-47a5-87ec-187368e09354","Laterality","EXLAT","22","Qualifier for anatomical location further detailing laterality of the intervention administration. Examples: ""LEFT"", ""RIGHT"".","Char","Variable Qualifier","Perm","",""
"214","https://sdtm.d4k.dk/ig/EX/EXDIR","7452aa62-a54e-46ce-beba-4756525dc1f3","Directionality","EXDIR","23","Qualifier for anatomical location further detailing directionality. Examples: ""ANTERIOR"", ""LOWER"", ""PROXIMAL"", ""UPPER"".","Char","Variable Qualifier","Perm","",""
"215","https://sdtm.d4k.dk/ig/EX/EXFAST","34809b13-0797-4044-a528-c1019b45f645","Fasting Status","EXFAST","24","Indicator used to identify fasting status. Examples: ""Y"", ""N"".","Char","Record Qualifier","Perm","",""
"216","https://sdtm.d4k.dk/ig/EX/EXADJ","be125fc4-3ac1-42b2-9556-0aad34750e13","Reason for Dose Adjustment","EXADJ","25","Describes reason or explanation of why a dose is adjusted.","Char","Record Qualifier","Perm","",""
"217","https://sdtm.d4k.dk/ig/EX/TAETORD","1a7d6f14-485e-4b3b-9d50-64f685de2da3","Planned Order of Element within Arm","TAETORD","26","Number that gives the planned order of the element within the arm.","Num","Timing","Perm","",""
"218","https://sdtm.d4k.dk/ig/EX/EPOCH","bce10eec-4187-4279-9002-08e7619245be","Epoch","EPOCH","27","Trial epoch of the exposure record. Examples: ""RUN-IN"", ""TREATMENT"".","Char","Timing","Perm","",""
"219","https://sdtm.d4k.dk/ig/EX/EXSTDTC","1444f38c-0abf-45c0-8270-7caaa3f5e8dd","Start Date/Time of Treatment","EXSTDTC","28","The date/time when administration of the treatment indicated by EXTRT and EXDOSE began.","Char","Timing","Exp","ISO 8601 datetime or interval",""
"220","https://sdtm.d4k.dk/ig/EX/EXENDTC","83cc4796-ecb8-491e-a8d5-95d7d3f011a5","End Date/Time of Treatment","EXENDTC","29","The date/time when administration of the treatment indicated by EXTRT and EXDOSE ended. For administrations considered given at a point in time (e.g., oral tablet, pre-filled syringe injection), where only an administration date/time is collected, EXSTDTC should be copied to EXENDTC as the standard representation.","Char","Timing","Exp","ISO 8601 datetime or interval",""
"221","https://sdtm.d4k.dk/ig/EX/EXSTDY","c7f1bf15-c9a6-4587-a15a-1b8cff50a323","Study Day of Start of Treatment","EXSTDY","30","Study day of EXSTDTC relative to DM.RFSTDTC.","Num","Timing","Perm","",""
"222","https://sdtm.d4k.dk/ig/EX/EXENDY","fa4cedc3-d695-4db7-8874-32727400ec5d","Study Day of End of Treatment","EXENDY","31","Study day of EXENDTC relative to DM.RFSTDTC.","Num","Timing","Perm","",""
"223","https://sdtm.d4k.dk/ig/EX/EXDUR","e276588e-ba0b-417e-8760-30742bbd51e8","Duration of Treatment","EXDUR","32","Collected duration of administration. Used only if collected on the CRF and not derived from start and end date/times.","Char","Timing","Perm","ISO 8601 duration",""
"224","https://sdtm.d4k.dk/ig/EX/EXTPT","032e0445-0d6d-45ae-8351-96fd7c03ec09","Planned Time Point Name","EXTPT","33","Text description of time when administration should occur. This may be represented as an elapsed time relative to a fixed reference point, such as time of last dose. See EXTPTNUM and EXTPTREF.","Char","Timing","Perm","",""
"225","https://sdtm.d4k.dk/ig/EX/EXTPTNUM","fb35dcf0-dc54-44e0-8210-d269dfa51fe0","Planned Time Point Number","EXTPTNUM","34","Numerical version of EXTPT to aid in sorting.","Num","Timing","Perm","",""
"226","https://sdtm.d4k.dk/ig/EX/EXELTM","4cc2bcc0-1167-401e-9694-23d46a276054","Planned Elapsed Time from Time Point Ref","EXELTM","35","Planned elapsed time relative to the planned fixed reference (EXTPTREF). This variable is useful where there are repetitive measures. Not a clock time.","Char","Timing","Perm","ISO 8601 duration",""
"227","https://sdtm.d4k.dk/ig/EX/EXTPTREF","3195d47d-f03f-4c88-b2a4-ed6a4641add2","Time Point Reference","EXTPTREF","36","Name of the fixed reference point referred to by EXELTM, EXTPTNUM, and EXTPT. Examples: PREVIOUS DOSE, PREVIOUS MEAL.","Char","Timing","Perm","",""
"228","https://sdtm.d4k.dk/ig/EX/EXRFTDTC","e8644ef7-cdee-4c8d-8593-822f5201043e","Date/Time of Reference Time Point","EXRFTDTC","37","Date/time for a fixed reference time point defined by EXTPTREF.","Char","Timing","Perm","ISO 8601 datetime or interval",""
"229","https://sdtm.d4k.dk/ig/ML/STUDYID","e5a7575d-a602-49e6-a55c-029ebc60c16b","Study Identifier","STUDYID","1","Unique identifier for a study.","Char","Identifier","Req","",""
"230","https://sdtm.d4k.dk/ig/ML/DOMAIN","048c646a-6d43-4490-be08-53a0b216be61","Domain Abbreviation","DOMAIN","2","Two-character abbreviation for the domain.","Char","Identifier","Req","",""
"231","https://sdtm.d4k.dk/ig/ML/USUBJID","4537b9a3-2cc8-4cbe-a660-6e2544ce1942","Unique Subject Identifier","USUBJID","3","Identifier used to uniquely identify a subject across all studies for all applications or submissions involving the product.","Char","Identifier","Req","",""
"232","https://sdtm.d4k.dk/ig/ML/MLSEQ","ae7e82e9-ea7a-487b-99a8-6d90c30828ea","Sequence Number","MLSEQ","4","Sequence number given to ensure uniqueness of subject records within a domain. May be any valid number.","Num","Identifier","Req","",""
"233","https://sdtm.d4k.dk/ig/ML/MLGRPID","e71f1953-d76b-4fe9-a9bb-27ea5b183b10","Group ID","MLGRPID","5","Used to tie together a block of related records in a single domain for a subject.","Char","Identifier","Perm","",""
"234","https://sdtm.d4k.dk/ig/ML/MLSPID","97ccb8c8-8999-4439-9797-ec3b2907a629","Sponsor-Defined Identifier","MLSPID","6","Sponsor-defined reference number. Examples: a number preprinted on the CRF as an explicit line identifier, record identifier defined in the sponsor's operational database.","Char","Identifier","Perm","",""
"235","https://sdtm.d4k.dk/ig/ML/MLTRT","b7e2fbda-eb5e-484e-8587-616a41d2896d","Name of Meal","MLTRT","7","Verbatim food product name that is either preprinted or collected on a CRF.","Char","Topic","Req","",""
"236","https://sdtm.d4k.dk/ig/ML/MLCAT","b2b09778-7a13-4638-9412-29aa514111a7","Category for Meal","MLCAT","8","Used to define a category of MLTRT values.","Char","Grouping Qualifier","Perm","",""
"237","https://sdtm.d4k.dk/ig/ML/MLSCAT","a9032645-8b2a-44b0-9bf3-576e34f0ad7e","Subcategory for Meal","MLSCAT","9","Used to define a further categorization of MLCAT values.","Char","Grouping Qualifier","Perm","",""
"238","https://sdtm.d4k.dk/ig/ML/MLPRESP","d0447585-3499-4ece-8220-8ae88c68ba5c","ML Pre-specified","MLPRESP","10","Used when a specific meal is prespecified on a CRF. Values should be ""Y"" or null.","Char","Variable Qualifier","Perm","",""
"239","https://sdtm.d4k.dk/ig/ML/MLOCCUR","af0a5b0e-877e-48ef-97f3-994ca3499129","ML Occurrence","MLOCCUR","11","Used to record whether a prespecified meal occurred when information about the occurrence of a specific meal is solicited.","Char","Record Qualifier","Perm","",""
"240","https://sdtm.d4k.dk/ig/ML/MLSTAT","4cc99b55-8f92-4277-9d94-68a098e85a3f","Completion Status","MLSTAT","12","Used to indicate when a question about the occurrence of a prespecified meal was not answered. Should be null or have a value of ""NOT DONE"".","Char","Record Qualifier","Perm","",""
"241","https://sdtm.d4k.dk/ig/ML/MLREASND","d9af8b32-b829-4f50-87df-dd84c063f91b","Reason Meal Not Collected","MLREASND","13","Describes the reason a response to a question about the occurrence of a meal was not collected. Used in conjunction with MLSTAT when value is ""NOT DONE"".","Char","Record Qualifier","Perm","",""
"242","https://sdtm.d4k.dk/ig/ML/MLDOSE","86839f77-591c-44ca-9707-fa118b9121a5","Dose","MLDOSE","14","Amount of MLTRT consumed. Not populated when MLDOSTXT is populated.","Num","Record Qualifier","Perm","",""
"243","https://sdtm.d4k.dk/ig/ML/MLDOSTXT","6951bb9b-09d3-42bb-a942-360f3894cd8c","Dose Description","MLDOSTXT","15","Amount description of MLTRT consumed, collected in text form. Not populated when MLDOSE is populated. Examples: ""<1 per day"", ""200-400"".","Char","Record Qualifier","Perm","",""
"244","https://sdtm.d4k.dk/ig/ML/MLDOSU","9e2424c2-eb65-4100-9495-6c5750718bf5","Dose Units","MLDOSU","16","Units for MLDOSE, MLDOSTOT, or MLDOSTXT.","Char","Variable Qualifier","Perm","",""
"245","https://sdtm.d4k.dk/ig/ML/MLDOSFRM","fb6dfbff-2d87-417f-9e66-7cd7f04367cb","Dose Form","MLDOSFRM","17","Dosage form for MLTRT. Example: ""BAR, CHEWABLE"".","Char","Variable Qualifier","Perm","",""
"246","https://sdtm.d4k.dk/ig/ML/VISITNUM","fcc8e875-e622-47bd-bf5e-8cb7ed846b43","Visit Number","VISITNUM","18","Clinical encounter number. Numeric version of VISIT, used for sorting.","Num","Timing","Perm","",""
"247","https://sdtm.d4k.dk/ig/ML/VISIT","aa7b9473-b2c3-43c0-8d24-0b070c6afece","Visit Name","VISIT","19","Protocol-defined description of a clinical encounter.","Char","Timing","Perm","",""
"248","https://sdtm.d4k.dk/ig/ML/VISITDY","8cc5d990-136b-4475-9029-a350ede498cf","Planned Study Day of Visit","VISITDY","20","Planned study day of VISIT. Should be an integer.","Num","Timing","Perm","",""
"249","https://sdtm.d4k.dk/ig/ML/TAETORD","af7b79a3-a78f-4430-9405-b9281b950910","Planned Order of Element within Arm","TAETORD","21","Number that gives the planned order of the element within the arm for the element in which the meal started.","Num","Timing","Perm","",""
"250","https://sdtm.d4k.dk/ig/ML/EPOCH","a0809673-3d20-40e9-af5a-a3d95c01ce75","Epoch","EPOCH","22","Epoch associated with the start date/time of the meal.","Char","Timing","Perm","",""
"251","https://sdtm.d4k.dk/ig/ML/MLDTC","08007a26-b798-4acf-becf-61fba6976ba6","Date/Time of Collection","MLDTC","23","Collection date and time of the meal represented in ISO 8601 character format.","Char","Timing","Perm","ISO 8601 datetime or interval",""
"252","https://sdtm.d4k.dk/ig/ML/MLSTDTC","e56622dd-d353-433a-8b88-4c4c0929110f","Start Date/Time of Meal","MLSTDTC","24","Start date/time of the meal represented in ISO 8601 character format.","Char","Timing","Perm","ISO 8601 datetime or interval",""
"253","https://sdtm.d4k.dk/ig/ML/MLENDTC","3c05da58-b494-4cf1-831a-2fb7b5496bd2","End Date/Time of Meal","MLENDTC","25","End date/time of the meal represented in ISO 8601 character format.","Char","Timing","Perm","ISO 8601 datetime or interval",""
"254","https://sdtm.d4k.dk/ig/ML/MLDY","fa4a3383-61dd-4b79-9b1a-6a8ac2688038","Study Day of Visit/Collection/Exam","MLDY","26","Actual study day of the visit/collection expressed in integer days relative to the sponsor-defined RFSTDTC in Demographics.","Num","Timing","Perm","",""
"255","https://sdtm.d4k.dk/ig/ML/MLSTDY","26c05584-6525-4954-86f7-c58c376724d7","Study Day of Start of Meal","MLSTDY","27","Actual study day of start of the meal expressed in integer days relative to sponsor-defined RFSTDTC in Demographics.","Num","Timing","Perm","",""
"256","https://sdtm.d4k.dk/ig/ML/MLENDY","34ec5569-7a56-47ae-a9da-c17d7319b2f1","Study Day of End of Meal","MLENDY","28","Actual study day of end of the meal expressed in integer days relative to the sponsor-defined RFSTDTC in Demographics.","Num","Timing","Perm","",""
"257","https://sdtm.d4k.dk/ig/ML/MLDUR","7485af6e-cd0e-4a89-9356-6189340182be","Duration of Meal","MLDUR","29","Collected duration of the meal represented in ISO 8601 character format. Used only if collected on the CRF and not derived.","Char","Timing","Perm","ISO 8601 duration",""
"258","https://sdtm.d4k.dk/ig/ML/MLTPT","7902ee58-9827-4a7d-b6f5-56cce1921d2c","Planned Time Point Name","MLTPT","30","Text description of time when a measurement or observation should be taken as defined in the protocol. This may be represented as an elapsed time relative to a fixed reference point. See MLTPTNUM and MLTPTREF.","Char","Timing","Perm","",""
"259","https://sdtm.d4k.dk/ig/ML/MLTPTNUM","20dcf248-e8ea-4f9f-97cf-24f425a241a6","Planned Time Point Number","MLTPTNUM","31","Numeric version of planned time point used in sorting.","Num","Timing","Perm","",""
"260","https://sdtm.d4k.dk/ig/ML/MLELTM","5a9467a4-8844-4133-a5ec-042948d8405c","Planned Elapsed Time from Time Point Ref","MLELTM","32","Planned elapsed time (in ISO 8601) relative to the planned fixed reference (MLTPTREF). This variable is useful when there are repetitive measures. Not a clock time or a date/time variable. Represented as an ISO 8601 duration.","Char","Timing","Perm","ISO 8601 duration",""
"261","https://sdtm.d4k.dk/ig/ML/MLTPTREF","3386caa9-d3dd-44fa-b077-e9fa22526a31","Time Point Reference","MLTPTREF","33","Description of the fixed reference point referred to by MLELTM, MLTPTNUM, and MLTPT.","Char","Timing","Perm","",""
"262","https://sdtm.d4k.dk/ig/ML/MLRFTDTC","fd8cccf9-75f9-41b2-bec5-30f43c7b4544","Date/Time of Reference Time Point","MLRFTDTC","34","Date/time for a fixed reference time point defined by MLTPTREF in ISO 8601 character format.","Char","Timing","Perm","ISO 8601 datetime or interval",""
"263","https://sdtm.d4k.dk/ig/ML/MIDS","99d68e76-2574-43c3-8d07-b4a623520010","Disease Milestone Instance Name","MIDS","35","The name of a specific instance of a disease milestone type (MIDSTYPE) described in the Trial Disease Milestones dataset. This should be unique within a subject. Used only in conjunction with RELMIDS and MIDSDTC.","Char","Timing","Perm","",""
"264","https://sdtm.d4k.dk/ig/ML/RELMIDS","94400b8f-282b-4118-ab69-88626140277d","Temporal Relation to Milestone Instance","RELMIDS","36","The temporal relationship of the observation to the disease milestone instance name in MIDS. Examples: ""IMMEDIATELY BEFORE"", ""AT TIME OF"", ""AFTER"".","Char","Timing","Perm","",""
"265","https://sdtm.d4k.dk/ig/ML/MIDSDTC","d6ae2003-a54c-4bb5-946f-bcbef49acb51","Disease Milestone Instance Date/Time","MIDSDTC","37","The start date/time of the disease milestone instance name in MIDS, in ISO 8601 format.","Char","Timing","Perm","ISO 8601 datetime or interval",""
"266","https://sdtm.d4k.dk/ig/PR/STUDYID","f75f4c80-561d-49e5-8db6-c12ff98952a1","Study Identifier","STUDYID","1","Unique identifier for a study.","Char","Identifier","Req","",""
"267","https://sdtm.d4k.dk/ig/PR/DOMAIN","a6f09c66-671f-421b-8a46-cece87e27bb6","Domain Abbreviation","DOMAIN","2","Two-character abbreviation for the domain.","Char","Identifier","Req","",""
"268","https://sdtm.d4k.dk/ig/PR/USUBJID","831d4596-d86d-4731-a02e-e3941697e0b7","Unique Subject Identifier","USUBJID","3","Identifier used to uniquely identify a subject across all studies for all applications or submissions involving the product.","Char","Identifier","Req","",""
"269","https://sdtm.d4k.dk/ig/PR/PRSEQ","506c3682-388a-456b-bb9b-08e4c5754fd3","Sequence Number","PRSEQ","4","Sequence number given to ensure uniqueness of subject records within a domain. May be any valid number.","Num","Identifier","Req","",""
"270","https://sdtm.d4k.dk/ig/PR/PRGRPID","2b912a0f-8dd9-4337-950c-3a913434280d","Group ID","PRGRPID","5","Used to link together a block of related records within a subject in a domain.","Char","Identifier","Perm","",""
"271","https://sdtm.d4k.dk/ig/PR/PRSPID","481115e9-1f28-46fe-9f44-b26232f68614","Sponsor-Defined Identifier","PRSPID","6","Sponsor-defined identifier. Example: preprinted line identifier on a CRF, record identifier defined in the sponsor's operational database.","Char","Identifier","Perm","",""
"272","https://sdtm.d4k.dk/ig/PR/PRLNKID","0e49b6e3-7c67-4ff1-80e2-a534dd4cab06","Link ID","PRLNKID","7","Used to facilitate identification of relationships between records.","Char","Identifier","Perm","",""
"273","https://sdtm.d4k.dk/ig/PR/PRLNKGRP","b5637b45-d36d-4cd5-b091-65c18413883b","Link Group ID","PRLNKGRP","8","Used to facilitate identification of relationships between records.","Char","Identifier","Perm","",""
"274","https://sdtm.d4k.dk/ig/PR/PRTRT","3b0e56a3-238d-452e-a141-75e3c53e157a","Reported Name of Procedure","PRTRT","9","Name of procedure performed, either preprinted or collected on a CRF.","Char","Topic","Req","",""
"275","https://sdtm.d4k.dk/ig/PR/PRDECOD","85a9224e-8c2b-4021-83f2-ddc4c3944011","Standardized Procedure Name","PRDECOD","10","Standardized or dictionary-derived name of PRTRT. If the codelist ""PROCEDUR"" is not used, the sponsor is expected to provide the dictionary name and version used to map the terms in the external codelist element in the Define-XML document. If an intervention term does not have a decode value, then PRDECOD will be null.","Char","Synonym Qualifier","Perm","",""
"276","https://sdtm.d4k.dk/ig/PR/PRCAT","749399e9-0b93-489a-8898-f5c414b50532","Category","PRCAT","11","Used to define a category of procedure values.","Char","Grouping Qualifier","Perm","",""
"277","https://sdtm.d4k.dk/ig/PR/PRSCAT","2d4d2b1b-3ca0-4c5d-bd82-e2354a07426c","Subcategory","PRSCAT","12","Used to define a further categorization of PRCAT values.","Char","Grouping Qualifier","Perm","",""
"278","https://sdtm.d4k.dk/ig/PR/PRPRESP","2d1af4e2-34a8-4f98-8c3d-d208fc3957c3","Pre-specified","PRPRESP","13","Used when a specific procedure is pre-specified on a CRF. Values should be ""Y"" or null.","Char","Variable Qualifier","Perm","",""
"279","https://sdtm.d4k.dk/ig/PR/PROCCUR","07a87968-9794-4342-a5f2-375fa2966d77","Occurrence","PROCCUR","14","Used to record whether a prespecified procedure occurred when information about the occurrence of a specific procedure is solicited.","Char","Record Qualifier","Perm","",""
"280","https://sdtm.d4k.dk/ig/PR/PRINDC","dfc91e7e-9c20-4f5c-be8f-2bb0afb66ac7","Indication","PRINDC","15","Denotes the indication for the procedure (e.g., why the procedure was performed).","Char","Record Qualifier","Perm","",""
"281","https://sdtm.d4k.dk/ig/PR/PRDOSE","af552d5c-e315-40d4-80cc-f50fe7e05511","Dose","PRDOSE","16","Amount of PRTRT administered. Not populated when PRDOSTXT is populated.","Num","Record Qualifier","Perm","",""
"282","https://sdtm.d4k.dk/ig/PR/PRDOSTXT","c51eef8a-f2a9-4586-be56-8a809ab287d0","Dose Description","PRDOSTXT","17","Dosing information collected in text form. Examples: ""<1"", ""200-400"". Not populated when PRDOSE is populated.","Char","Record Qualifier","Perm","",""
"283","https://sdtm.d4k.dk/ig/PR/PRDOSU","ef1c9a7b-42ea-4951-9e09-c5ac9b41903d","Dose Units","PRDOSU","18","Units for PRDOSE, PRDOSTOT, or PRDOSTXT.","Char","Variable Qualifier","Perm","",""
"284","https://sdtm.d4k.dk/ig/PR/PRDOSFRM","bfcdb896-eb81-417b-bca9-7a79477d27f1","Dose Form","PRDOSFRM","19","Dose form for PRTRT.","Char","Variable Qualifier","Perm","",""
"285","https://sdtm.d4k.dk/ig/PR/PRDOSFRQ","6d860f90-f967-40dd-b8ea-a8a409bfa245","Dosing Frequency per Interval","PRDOSFRQ","20","Usually expressed as the number of doses given per a specific interval.","Char","Record Qualifier","Perm","",""
"286","https://sdtm.d4k.dk/ig/PR/PRDOSRGM","d1458854-6e2d-4174-8aae-5dbdd3365936","Intended Dose Regimen","PRDOSRGM","21","Text description of the intended schedule or regimen for the procedure.","Char","Record Qualifier","Perm","",""
"287","https://sdtm.d4k.dk/ig/PR/PRROUTE","de225066-52e4-430d-883c-93837496cf2b","Route of Administration","PRROUTE","22","Route of administration for PRTRT.","Char","Variable Qualifier","Perm","",""
"288","https://sdtm.d4k.dk/ig/PR/PRLOC","e5cbfb5c-30ff-4dbe-b1d5-20332fe7c8c5","Location of Procedure","PRLOC","23","Anatomical location of a procedure.","Char","Record Qualifier","Perm","",""
"289","https://sdtm.d4k.dk/ig/PR/PRLAT","e975411b-242f-4c99-901d-86cdf5f124e6","Laterality","PRLAT","24","Qualifier for anatomical location or specimen further detailing laterality.","Char","Variable Qualifier","Perm","",""
"290","https://sdtm.d4k.dk/ig/PR/PRDIR","3b774b5f-7978-4d4b-94f9-b18b6a2f9033","Directionality","PRDIR","25","Qualifier for anatomical location or specimen further detailing directionality.","Char","Variable Qualifier","Perm","",""
"291","https://sdtm.d4k.dk/ig/PR/PRPORTOT","2e297e47-1393-4086-bfbc-675ba6a873c5","Portion or Totality","PRPORTOT","26","Qualifier for anatomical location or specimen further detailing the distribution, which means arrangement of, apportioning of.","Char","Variable Qualifier","Perm","",""
"292","https://sdtm.d4k.dk/ig/PR/VISITNUM","c7d21985-0471-494d-8d33-dc9b7c5be3cb","Visit Number","VISITNUM","27","Clinical encounter number. Numeric version of VISIT, used for sorting.","Num","Timing","Perm","",""
"293","https://sdtm.d4k.dk/ig/PR/VISIT","5aab337e-82d8-4b30-9e5b-73ea2df8ecff","Visit Name","VISIT","28","Protocol-defined description of a clinical encounter.","Char","Timing","Perm","",""
"294","https://sdtm.d4k.dk/ig/PR/VISITDY","37c31a53-7d4e-4e1d-8c9a-0addd0b6de31","Planned Study Day of Visit","VISITDY","29","Planned study day of VISIT. Should be an integer.","Num","Timing","Perm","",""
"295","https://sdtm.d4k.dk/ig/PR/TAETORD","a2192ad0-b30b-4e00-84d2-fd3819b38022","Planned Order of Element within Arm","TAETORD","30","Number that gives the planned order of the element within the arm.","Num","Timing","Perm","",""
"296","https://sdtm.d4k.dk/ig/PR/EPOCH","405e976f-f8d4-4d29-979f-b0ab61cdbce3","Epoch","EPOCH","31","Epoch associated with the start date/time of the procedure.","Char","Timing","Perm","",""
"297","https://sdtm.d4k.dk/ig/PR/PRSTDTC","1f88baa3-131a-40d4-81df-e34f79d25f29","Start Date/Time of Procedure","PRSTDTC","32","Start date/time of the procedure represented in ISO 8601 character format.","Char","Timing","Exp","ISO 8601 datetime or interval",""
"298","https://sdtm.d4k.dk/ig/PR/PRENDTC","584eb09c-0e29-4beb-8f6e-aed1877f5633","End Date/Time of Procedure","PRENDTC","33","End date/time of the procedure represented in ISO 8601 character format.","Char","Timing","Perm","ISO 8601 datetime or interval",""
"299","https://sdtm.d4k.dk/ig/PR/PRSTDY","6a6d4fbb-3881-474d-a676-2ed7a2333468","Study Day of Start of Procedure","PRSTDY","34","Study day of start of procedure expressed in integer days relative to the sponsor-defined RFSTDTC in Demographics.","Num","Timing","Perm","",""
"300","https://sdtm.d4k.dk/ig/PR/PRENDY","810257b9-14d1-4ffc-b23e-bbb2aaf82569","Study Day of End of Procedure","PRENDY","35","Study day of end of procedure expressed in integer days relative to the sponsor-defined RFSTDTC in Demographics.","Num","Timing","Perm","",""
"301","https://sdtm.d4k.dk/ig/PR/PRDUR","cd123802-a4f2-4aac-9009-1918a5cdeb7a","Duration of Procedure","PRDUR","36","Collected duration of a procedure represented in ISO 8601 character format. Used only if collected on the CRF and not derived from start and end date/times.","Char","Timing","Perm","ISO 8601 duration",""
"302","https://sdtm.d4k.dk/ig/PR/PRTPT","6c887c41-8634-4244-b9f5-3b9ad4e374be","Planned Time Point Name","PRTPT","37","Text description of time when a procedure should be performed. This may be represented as an elapsed time relative to a fixed reference point, such as time of last dose. See PRTPTNUM and PRTPTREF.","Char","Timing","Perm","",""
"303","https://sdtm.d4k.dk/ig/PR/PRTPTNUM","e3a265ec-f38c-4cb9-b280-46b9849a05b8","Planned Time Point Number","PRTPTNUM","38","Numerical version of planned time point used in sorting.","Num","Timing","Perm","",""
"304","https://sdtm.d4k.dk/ig/PR/PRELTM","73c30fd5-98de-44a4-a40c-bf6ee9c27fa8","Planned Elapsed Time from Time Point Ref","PRELTM","39","Planned elapsed time in ISO 8601 format relative to a planned fixed reference (PRTPTREF). This variable is useful where there are repetitive measures. Not a clock time or a date/time variable, but an interval, represented as ISO duration.","Char","Timing","Perm","ISO 8601 duration",""
"305","https://sdtm.d4k.dk/ig/PR/PRTPTREF","142dbc71-41f7-4fb1-b5ff-eda3936a2fcd","Time Point Reference","PRTPTREF","40","Description of the fixed reference point referred to by PRELTM, PRTPTNUM, and PRTPT.","Char","Timing","Perm","",""
"306","https://sdtm.d4k.dk/ig/PR/PRRFTDTC","df31800a-cba4-4f85-b0ef-68a882a32b40","Date/Time of Reference Time Point","PRRFTDTC","41","Date/time for a fixed reference time point defined by PRTRTREF in ISO 8601 character format.","Char","Timing","Perm","ISO 8601 datetime or interval",""
"307","https://sdtm.d4k.dk/ig/PR/PRSTRTPT","55f2d083-5d93-4254-b609-fe9dc4b6101a","Start Relative to Reference Time Point","PRSTRTPT","42","Identifies the start of the observation as being before or after the sponsor-defined reference time point defined by variable PRSTTPT. \n Not all values of the codelist are allowable for this variable. See Section 4.4.7, Use of Relative Timing Variables.","Char","Timing","Perm","",""
"308","https://sdtm.d4k.dk/ig/PR/PRSTTPT","1e512c9d-3107-4223-9946-6419f7d09e49","Start Reference Time Point","PRSTTPT","43","Description or date/time in ISO 8601 character format of the sponsor-defined reference point referred to by PRSTRTPT. Examples: ""2003-12-15"", ""VISIT 1"".","Char","Timing","Perm","",""
"309","https://sdtm.d4k.dk/ig/PR/PRENRTPT","fd77d05a-3b74-492e-83c0-0561edd67269","End Relative to Reference Time Point","PRENRTPT","44","Identifies the end of the observation as being before or after the sponsor-defined reference time point defined by variable PRENTPT. \n Not all values of the codelist are allowable for this variable. See Section 4.4.7, Use of Relative Timing Variables.","Char","Timing","Perm","",""
"310","https://sdtm.d4k.dk/ig/PR/PRENTPT","ef471a77-6955-42fd-b77e-1c0100567557","End Reference Time Point","PRENTPT","45","Description or date/time in ISO 8601 character format of the sponsor-defined reference point referred to by PRENRTPT. Examples: ""2003-12-25"", ""VISIT 2"".","Char","Timing","Perm","",""
"311","https://sdtm.d4k.dk/ig/SU/STUDYID","6c68a4f7-fac2-40d1-b617-2b823bc2dd64","Study Identifier","STUDYID","1","Unique identifier for a study.","Char","Identifier","Req","",""
"312","https://sdtm.d4k.dk/ig/SU/DOMAIN","3e869638-12cd-442d-b7fd-1a097ee42d73","Domain Abbreviation","DOMAIN","2","Two-character abbreviation for the domain.","Char","Identifier","Req","",""
"313","https://sdtm.d4k.dk/ig/SU/USUBJID","be3bf684-98a0-4f61-bea3-dd00d9ce6355","Unique Subject Identifier","USUBJID","3","Identifier used to uniquely identify a subject across all studies for all applications or submissions involving the product.","Char","Identifier","Req","",""
"314","https://sdtm.d4k.dk/ig/SU/SUSEQ","ab4504c3-f4d5-48a4-b9d0-df6852c8d9bb","Sequence Number","SUSEQ","4","Sequence number given to ensure uniqueness of subject records within a domain. May be any valid number.","Num","Identifier","Req","",""
"315","https://sdtm.d4k.dk/ig/SU/SUGRPID","b3eb229d-e94c-462e-9aa8-1712bb356f97","Group ID","SUGRPID","5","Used to tie together a block of related records in a single domain for a subject.","Char","Identifier","Perm","",""
"316","https://sdtm.d4k.dk/ig/SU/SUSPID","0b2fb124-80d8-4479-aa59-7bd52bb40428","Sponsor-Defined Identifier","SUSPID","6","Sponsor-defined reference number. May be preprinted on the CRF as an explicit line identifier or defined in the sponsor's operational database. Example: Line number on a Tobacco & Alcohol Use CRF page.","Char","Identifier","Perm","",""
"317","https://sdtm.d4k.dk/ig/SU/SUTRT","bd86f31c-753f-45d8-9c1e-91b074d26515","Reported Name of Substance","SUTRT","7","Substance name. Examples: ""CIGARETTES"", ""COFFEE"".","Char","Topic","Req","",""
"318","https://sdtm.d4k.dk/ig/SU/SUMODIFY","d128b81a-dc5f-43e8-81c8-edd2b8ce4a4f","Modified Substance Name","SUMODIFY","8","If SUTRT is modified, then the modified text is placed here.","Char","Synonym Qualifier","Perm","",""
"319","https://sdtm.d4k.dk/ig/SU/SUDECOD","3bdb51f4-83cc-440d-8f65-856ca596eb03","Standardized Substance Name","SUDECOD","9","Standardized or dictionary-derived text description of SUTRT or SUMODIFY if the sponsor chooses to code the substance use. The sponsor is expected to provide the dictionary name and version used to map the terms utilizing the external codelist element in the Define-XML document.","Char","Synonym Qualifier","Perm","",""
"320","https://sdtm.d4k.dk/ig/SU/SUCAT","8512121d-f6dc-4dfd-b232-2dcfde158e31","Category for Substance Use","SUCAT","10","Used to define a category of related records. Examples: ""TOBACCO"", ""ALCOHOL"", or ""CAFFEINE"".","Char","Grouping Qualifier","Perm","",""
"321","https://sdtm.d4k.dk/ig/SU/SUSCAT","942339ca-4f24-42e1-8b83-22bb9f72a9cf","Subcategory for Substance Use","SUSCAT","11","A further categorization of substance use. Examples: ""CIGARS"", ""CIGARETTES"", ""BEER"", ""WINE"".","Char","Grouping Qualifier","Perm","",""
"322","https://sdtm.d4k.dk/ig/SU/SUPRESP","82947a23-75ee-4024-838b-94d691e54104","SU Pre-Specified","SUPRESP","12","Used to indicate whether (""Y""/null) information about the use of a specific substance was solicited on the CRF.","Char","Variable Qualifier","Perm","",""
"323","https://sdtm.d4k.dk/ig/SU/SUOCCUR","ab3ef691-3c58-4381-a000-209f37dd5508","SU Occurrence","SUOCCUR","13","When the use of specific substances is solicited, SUOCCUR is used to indicate whether (""Y""/""N"") a particular prespecified substance was used. Values are null for substances not specifically solicited.","Char","Record Qualifier","Perm","",""
"324","https://sdtm.d4k.dk/ig/SU/SUSTAT","ede954b1-d5df-4660-a8ce-3bb2702ce032","Completion Status","SUSTAT","14","When the use of prespecified substances is solicited, the completion status indicates that there was no response to the question about the prespecified substance. When there is no prespecified list on the CRF, then the completion status indicates that substance use was not assessed for the subject.","Char","Record Qualifier","Perm","",""
"325","https://sdtm.d4k.dk/ig/SU/SUREASND","dec8f1c3-f79c-40c9-a047-3301427e500a","Reason Substance Use Not Collected","SUREASND","15","Describes the reason substance use was not collected. Used in conjunction with SUSTAT when value of SUSTAT is ""NOT DONE"".","Char","Record Qualifier","Perm","",""
"326","https://sdtm.d4k.dk/ig/SU/SUCLAS","b1279913-2310-45d5-a8f2-42a17877a455","Substance Use Class","SUCLAS","16","Substance use class. May be obtained from coding. When coding to a single class, populate with class value. If using a dictionary and coding to multiple classes, then follow Section 4.2.8.3, Multiple Values for a Non-result Qualifier Variable, or omit SUCLAS.","Char","Variable Qualifier","Perm","",""
"327","https://sdtm.d4k.dk/ig/SU/SUCLASCD","91276f16-7654-46d8-adc7-6f7463f3e831","Substance Use Class Code","SUCLASCD","17","Code corresponding to SUCLAS. May be obtained from coding.","Char","Variable Qualifier","Perm","",""
"328","https://sdtm.d4k.dk/ig/SU/SUDOSE","419d8e94-7d0b-4d09-85b4-166c5eb65ac6","Substance Use Consumption","SUDOSE","18","Amount of SUTRT consumed. Not populated if SUDOSTXT is populated.","Num","Record Qualifier","Perm","",""
"329","https://sdtm.d4k.dk/ig/SU/SUDOSTXT","59132ae2-dc66-4873-8a31-e02a4181e627","Substance Use Consumption Text","SUDOSTXT","19","Substance use consumption amounts or a range of consumption information collected in text form. Not populated if SUDOSE is populated.","Char","Record Qualifier","Perm","",""
"330","https://sdtm.d4k.dk/ig/SU/SUDOSU","46442dc6-3957-4692-a787-1845bc22b623","Consumption Units","SUDOSU","20","Units for SUDOSE, SUDOSTOT, or SUDOSTXT. Examples: ""oz"", ""CIGARETTE"", ""PACK"", ""g"".","Char","Variable Qualifier","Perm","",""
"331","https://sdtm.d4k.dk/ig/SU/SUDOSFRM","ed220b10-d000-4b86-a02a-1e399beb3a44","Dose Form","SUDOSFRM","21","Dose form for SUTRT. Examples: ""INJECTABLE"", ""LIQUID"", ""POWDER"".","Char","Variable Qualifier","Perm","",""
"332","https://sdtm.d4k.dk/ig/SU/SUDOSFRQ","21e079d0-815f-41c7-8123-81019f172ec5","Use Frequency Per Interval","SUDOSFRQ","22","Usually expressed as the number of repeated administrations of SUDOSE within a specific time period. Example: ""Q24H"" (every day).","Char","Variable Qualifier","Perm","",""
"333","https://sdtm.d4k.dk/ig/SU/SUDOSTOT","e1fc9a71-3ca9-45b8-9a6a-c7183abea441","Total Daily Consumption","SUDOSTOT","23","Total daily use of SUTRT using the units in SUDOSU. Used when dosing is collected as total daily dose. If a sponsor needs to aggregate the data over a period other than daily, then the aggregated total could be recorded in a supplemental qualifier variable.","Num","Record Qualifier","Perm","",""
"334","https://sdtm.d4k.dk/ig/SU/SUROUTE","3a23c05f-c66e-48b5-b6ff-c4c31cff8aa2","Route of Administration","SUROUTE","24","Route of administration for SUTRT. Examples: ""ORAL"", ""INTRAVENOUS"".","Char","Variable Qualifier","Perm","",""
"335","https://sdtm.d4k.dk/ig/SU/TAETORD","477e79fa-1c0d-4c2d-ad6b-7c45102e79f5","Planned Order of Element within Arm","TAETORD","25","Number that gives the planned order of the element within the arm for the element in which the substance use started. Null for substances that started before study participation.","Num","Timing","Perm","",""
"336","https://sdtm.d4k.dk/ig/SU/EPOCH","9d34e658-1246-4cd2-80fd-28a344c7c734","Epoch","EPOCH","26","Epoch associated with the start date/time of the substance use. Null for substances that started before study participation.","Char","Timing","Perm","",""
"337","https://sdtm.d4k.dk/ig/SU/SUSTDTC","d6b70fac-4130-4af7-9bb9-f7a7ac6a194c","Start Date/Time of Substance Use","SUSTDTC","27","Start date/time of the substance use represented in ISO 8601 character format.","Char","Timing","Perm","ISO 8601 datetime or interval",""
"338","https://sdtm.d4k.dk/ig/SU/SUENDTC","04d6bb00-0113-4d1d-b3e3-baacb17bbd3b","End Date/Time of Substance Use","SUENDTC","28","End date/time of the substance use represented in ISO 8601 character format.","Char","Timing","Perm","ISO 8601 datetime or interval",""
"339","https://sdtm.d4k.dk/ig/SU/SUSTDY","78a4b03a-79fd-4293-bcb5-c6a6a3f4697c","Study Day of Start of Substance Use","SUSTDY","29","Study day of start of substance use relative to the sponsor-defined RFSTDTC.","Num","Timing","Perm","",""
"340","https://sdtm.d4k.dk/ig/SU/SUENDY","b68ceccc-e0d5-446c-b229-479a6ab65398","Study Day of End of Substance Use","SUENDY","30","Study day of end of substance use relative to the sponsor-defined RFSTDTC.","Num","Timing","Perm","",""
"341","https://sdtm.d4k.dk/ig/SU/SUDUR","795e8405-9c40-4b24-b36f-2f3dd8e6412f","Duration of Substance Use","SUDUR","31","Collected duration of substance use in ISO 8601 format. Used only if collected on the CRF and not derived from start and end date/times.","Char","Timing","Perm","ISO 8601 duration",""
"342","https://sdtm.d4k.dk/ig/SU/SUSTRF","7bc6d95f-89d1-468d-9bf7-f0d7e3a53a19","Start Relative to Reference Period","SUSTRF","32","Describes the start of the substance use relative to the sponsor-defined reference period. The sponsor-defined reference period is a continuous period of time defined by a discrete starting point and a discrete ending point (represented by RFSTDTC and RFENDTC in Demographics). If information such as ""PRIOR"" was collected, this information may be translated into SUSTRF. \n Not all values of the codelist are allowable for this variable. See Section 4.4.7, Use of Relative Timing Variables.","Char","Timing","Perm","",""
"343","https://sdtm.d4k.dk/ig/SU/SUENRF","157f2394-f930-4843-b3a6-88e92505490e","End Relative to Reference Period","SUENRF","33","Describes the end of the substance use with relative to the sponsor-defined reference period. The sponsor-defined reference period is a continuous period of time defined by a discrete starting point and a discrete ending point (represented by RFSTDTC and RFENDTC in Demographics). If information such as ""PRIOR"", ""ONGOING"", or ""CONTINUING"" was collected, this information may be translated into SUENRF. \n Not all values of the codelist are allowable for this variable. See Section 4.4.7, Use of Relative Timing Variables.","Char","Timing","Perm","",""
"344","https://sdtm.d4k.dk/ig/SU/SUSTRTPT","0d583ba4-17a6-40e9-8750-002f86a84052","Start Relative to Reference Time Point","SUSTRTPT","34","Identifies the start of the substance as being before or after the reference time point defined by variable SUSTTPT. \n Not all values of the codelist are allowable for this variable. See Section 4.4.7 , Use of Relative Timing Variables.","Char","Timing","Perm","",""
"345","https://sdtm.d4k.dk/ig/SU/SUSTTPT","315f25c2-1127-4e28-8913-4f7a864395cc","Start Reference Time Point","SUSTTPT","35","Description or date/time in ISO 8601 character format of the reference point referred to by SUSTRTPT. Examples: ""2003-12-15"", ""VISIT 1"".","Char","Timing","Perm","",""
"346","https://sdtm.d4k.dk/ig/SU/SUENRTPT","c7534a84-15aa-4962-82ac-77e254257ef4","End Relative to Reference Time Point","SUENRTPT","36","Identifies the end of the substance as being before or after the reference time point defined by variable SUENTPT. \n Not all values of the codelist are allowable for this variable. See Section 4.4.7 , Use of Relative Timing Variables.","Char","Timing","Perm","",""
"347","https://sdtm.d4k.dk/ig/SU/SUENTPT","0f8d2bf0-065b-4941-901a-caa0681ff5d5","End Reference Time Point","SUENTPT","37","Description or date/time in ISO 8601 character format of the reference point referred to by SUENRTPT. Examples: ""2003-12-25"", ""VISIT 2"".","Char","Timing","Perm","",""
"348","https://sdtm.d4k.dk/ig/AE/STUDYID","c049e3ed-44cd-4049-b55f-ee8413019ec5","Study Identifier","STUDYID","1","Unique identifier for a study.","Char","Identifier","Req","",""
"349","https://sdtm.d4k.dk/ig/AE/DOMAIN","f399fc46-9979-4473-8365-052df146ff2b","Domain Abbreviation","DOMAIN","2","Two-character abbreviation for the domain.","Char","Identifier","Req","",""
"350","https://sdtm.d4k.dk/ig/AE/USUBJID","647312e3-7f10-4c18-8b11-141539838d4c","Unique Subject Identifier","USUBJID","3","Identifier used to uniquely identify a subject across all studies for all applications or submissions involving the product.","Char","Identifier","Req","",""
"351","https://sdtm.d4k.dk/ig/AE/SPDEVID","e7292343-aa4a-4c5f-995a-2868ee3e6d41","Sponsor Device Identifier","SPDEVID","4","A sequence of characters used by the sponsor to uniquely identify a specific device. Used to represent a device associated in some way with the adverse event. SPDEVID values are defined in the Device Identifiers (DI) domain.","Char","Identifier","Perm","",""
"352","https://sdtm.d4k.dk/ig/AE/AESEQ","e358cd9f-7be9-4055-a137-38e07e8bec68","Sequence Number","AESEQ","5","Sequence number given to ensure uniqueness of subject records within a domain. May be any valid number.","Num","Identifier","Req","",""
"353","https://sdtm.d4k.dk/ig/AE/AEGRPID","ccf5c227-39ab-4993-94ed-f0277075891f","Group ID","AEGRPID","6","Used to tie together a block of related records in a single domain for a subject.","Char","Identifier","Perm","",""
"354","https://sdtm.d4k.dk/ig/AE/AEREFID","61e82aae-0de6-4b9f-a497-4193798912dc","Reference ID","AEREFID","7","Internal or external identifier such as a serial number on an SAE reporting form.","Char","Identifier","Perm","",""
"355","https://sdtm.d4k.dk/ig/AE/AESPID","ac8b54db-6f7e-4066-b2a4-74756cdc4ca7","Sponsor-Defined Identifier","AESPID","8","Sponsor-defined identifier. It may be preprinted on the CRF as an explicit line identifier or defined in the sponsor's operational database. Example: Line number on an Adverse Events CRF page.","Char","Identifier","Perm","",""
"356","https://sdtm.d4k.dk/ig/AE/AETERM","cca7c3ee-7dd0-4364-af6f-599daf4258bf","Reported Term for the Adverse Event","AETERM","9","Verbatim name of the event.","Char","Topic","Req","",""
"357","https://sdtm.d4k.dk/ig/AE/AEMODIFY","622d69e4-6c1b-4364-81f5-fe8362a8ffb4","Modified Reported Term","AEMODIFY","10","If AETERM is modified to facilitate coding, then AEMODIFY will contain the modified text.","Char","Synonym Qualifier","Perm","",""
"358","https://sdtm.d4k.dk/ig/AE/AELLT","41656ae2-5372-46b9-8e2f-1b22831b2375","Lowest Level Term","AELLT","11","Dictionary-derived text description of the lowest level term.","Char","Variable Qualifier","Exp","MedDRA",""
"359","https://sdtm.d4k.dk/ig/AE/AELLTCD","7ed1650b-e3c8-4936-b468-c581246884fd","Lowest Level Term Code","AELLTCD","12","Dictionary-derived code for the lowest level term.","Num","Variable Qualifier","Exp","MedDRA",""
"360","https://sdtm.d4k.dk/ig/AE/AEDECOD","5e2019a0-d8e6-4212-b119-bf0efb827387","Dictionary-Derived Term","AEDECOD","13","Dictionary-derived text description of AETERM or AEMODIFY. Equivalent to the Preferred Term (PT in MedDRA). The sponsor is expected to provide the dictionary name and version used to map the terms utilizing the external codelist element in the Define-XML document.","Char","Synonym Qualifier","Req","MedDRA",""
"361","https://sdtm.d4k.dk/ig/AE/AEPTCD","544f2124-65cf-48aa-b82a-17e5a90c3d18","Preferred Term Code","AEPTCD","14","Dictionary-derived code for the preferred term.","Num","Variable Qualifier","Exp","MedDRA",""
"362","https://sdtm.d4k.dk/ig/AE/AEHLT","ba3f2286-8d52-4209-9a1a-05f673aac562","High Level Term","AEHLT","15","Dictionary-derived text description of the high level term for the primary system organ class (SOC).","Char","Variable Qualifier","Exp","MedDRA",""
"363","https://sdtm.d4k.dk/ig/AE/AEHLTCD","25fa48b8-fc7c-47c7-8e5d-f2a6a53cd504","High Level Term Code","AEHLTCD","16","Dictionary-derived code for the high level term for the primary SOC.","Num","Variable Qualifier","Exp","MedDRA",""
"364","https://sdtm.d4k.dk/ig/AE/AEHLGT","22847611-adcc-4991-a395-48cf57b112ad","High Level Group Term","AEHLGT","17","Dictionary-derived text description of the high level group term for the primary SOC.","Char","Variable Qualifier","Exp","MedDRA",""
"365","https://sdtm.d4k.dk/ig/AE/AEHLGTCD","eae3f9f0-c1f5-4bd6-932c-dcf5de0353b3","High Level Group Term Code","AEHLGTCD","18","Dictionary-derived code for the high level group term for the primary SOC.","Num","Variable Qualifier","Exp","MedDRA",""
"366","https://sdtm.d4k.dk/ig/AE/AECAT","946c1c1a-b3db-4f1a-ba63-77fd3a52b664","Category for Adverse Event","AECAT","19","Used to define a category of related records. Examples: ""BLEEDING"", ""NEUROPSYCHIATRIC"".","Char","Grouping Qualifier","Perm","",""
"367","https://sdtm.d4k.dk/ig/AE/AESCAT","cfcfb2a4-84ab-4a03-816b-019aa8584d47","Subcategory for Adverse Event","AESCAT","20","A further categorization of adverse event. Example: ""NEUROLOGIC"".","Char","Grouping Qualifier","Perm","",""
"368","https://sdtm.d4k.dk/ig/AE/AEPRESP","69890fc5-acd8-4c41-b328-d21a4b0c30df","Pre-Specified Adverse Event","AEPRESP","21","A value of ""Y"" indicates that this adverse event was prespecified on the CRF. Values are null for spontaneously reported events (i.e., those collected as free-text verbatim terms).","Char","Variable Qualifier","Perm","",""
"369","https://sdtm.d4k.dk/ig/AE/AEBODSYS","b74f549b-9101-4312-bc65-a66013d4125d","Body System or Organ Class","AEBODSYS","22","Dictionary derived. Body system or organ class used by the sponsor from the coding dictionary (e.g., MedDRA). When using a multi-axial dictionary such as MedDRA, this should contain the SOC used for the sponsor's analyses and summary tables, which may not necessarily be the primary SOC.","Char","Record Qualifier","Exp","",""
"370","https://sdtm.d4k.dk/ig/AE/AEBDSYCD","b5909315-34ad-45d3-9103-90b3989c7c27","Body System or Organ Class Code","AEBDSYCD","23","Dictionary derived. Code for the body system or organ class used by the sponsor. When using a multi-axial dictionary such as MedDRA, this should contain the SOC used for the sponsor's analyses and summary tables, which may not necessarily be the primary SOC.","Num","Variable Qualifier","Exp","MedDRA",""
"371","https://sdtm.d4k.dk/ig/AE/AESOC","08308620-da20-4597-960a-5fd8c2bafbf3","Primary System Organ Class","AESOC","24","Dictionary-derived text description of the primary SOC. Will be the same as AEBODSYS if the primary SOC was used for analysis.","Char","Variable Qualifier","Exp","MedDRA",""
"372","https://sdtm.d4k.dk/ig/AE/AESOCCD","6fa73a1d-2190-43f1-8f12-447ba9158f78","Primary System Organ Class Code","AESOCCD","25","Dictionary-derived code for the primary SOC. Will be the same as AEBDSYCD if the primary SOC was used for analysis.","Num","Variable Qualifier","Exp","MedDRA",""
"373","https://sdtm.d4k.dk/ig/AE/AELOC","43cad713-e549-4cbc-b238-345f4f4b01e2","Location of Event","AELOC","26","Describes anatomical location relevant for the event (e.g., ""ARM"" for skin rash).","Char","Record Qualifier","Perm","",""
"374","https://sdtm.d4k.dk/ig/AE/AESEV","96899853-7146-42d9-b91b-eb5370e906da","Severity/Intensity","AESEV","27","The severity or intensity of the event. Examples: ""MILD"", ""MODERATE"", ""SEVERE"".","Char","Record Qualifier","Perm","",""
"375","https://sdtm.d4k.dk/ig/AE/AESER","78a94912-f16b-4b5c-a440-929fbbf88b63","Serious Event","AESER","28","Is this a serious event? Valid values are ""Y"" and ""N"".","Char","Record Qualifier","Exp","",""
"376","https://sdtm.d4k.dk/ig/AE/AEACN","d25da7f5-3cc0-4a8a-a9e4-edabd8cf868c","Action Taken with Study Treatment","AEACN","29","Describes changes to the study treatment as a result of the event. AEACN is specifically for the relationship to study treatment. AEACNOTH is for actions unrelated to dose adjustments of study treatment. Examples of AEACN values include ICH E2B values: ""DRUG WITHDRAWN"", ""DOSE REDUCED"", ""DOSE INCREASED"", ""DOSE NOT CHANGED"", ""UNKNOWN"" and ""NOT APPLICABLE"".","Char","Record Qualifier","Exp","",""
"377","https://sdtm.d4k.dk/ig/AE/AEACNOTH","5f941eb5-d720-432c-aea3-24edaeb02c18","Other Action Taken","AEACNOTH","30","Describes other actions taken as a result of the event that are unrelated to dose adjustments of study treatment. Usually reported as free text. Example: ""TREATMENT UNBLINDED. PRIMARY CARE PHYSICIAN NOTIFIED"".","Char","Record Qualifier","Perm","",""
"378","https://sdtm.d4k.dk/ig/AE/AEACNDEV","2eb72a71-0fe1-4513-b9db-1810f8633625","Action Taken with Device","AEACNDEV","31","An action taken with a device as the result of the event. The device may or may not be a device under study.","Char","Record Qualifier","Perm","",""
"379","https://sdtm.d4k.dk/ig/AE/AEREL","1fbb8757-2a66-4e37-a838-8c7194288ce4","Causality","AEREL","32","Records the investigator's opinion as to the causality of the event to the treatment. ICH does not establish any required or recommended terms for non-device relatedness. ICH E2A and E2B examples include (up-cased here for alignment to SDTM conventions) terms such as ""NOT RELATED"", ""UNLIKELY RELATED"", ""POSSIBLY RELATED"", ""RELATED"", but these example terms do not establish any conventions or expectations. Controlled terminology may be defined in the future. Check with regulatory authority for population of this variable.","Char","Record Qualifier","Exp","",""
"380","https://sdtm.d4k.dk/ig/AE/AERLDEV","c393fcd3-6a18-4ede-a820-bc547314731e","Relationship of Event to Device","AERLDEV","33","A judgment as to the likelihood that the device caused the adverse event. The relationship is to a device identified in the data (i.e., has an SPDEVID). The device may be ancillary or under study. \n Terminology: \n * In the EU, follow the European Commission Guidelines on Medical Devices, Clinical Investigations: SAE Reporting (MEDDEV 2.7/3) (e.g., Not Related, Unlikely, Possible, Probable, Causal Relationship), with device-specific definitions. \n * No required Controlled Terminology in US.","Char","Record Qualifier","Perm","",""
"381","https://sdtm.d4k.dk/ig/AE/AERELNST","5677eb3d-e1e5-47e4-a42d-2edbff58555a","Relationship to Non-Study Treatment","AERELNST","34","Records the investigator's opinion as to whether the event may have been due to a treatment other than study drug. May be reported as free text. Example: ""MORE LIKELY RELATED TO ASPIRIN USE"".","Char","Record Qualifier","Perm","",""
"382","https://sdtm.d4k.dk/ig/AE/AEPATT","6062b674-bec8-4ebc-936d-1a4ada9eebe6","Pattern of Adverse Event","AEPATT","35","Used to indicate the pattern of the event over time. Examples: ""INTERMITTENT"", ""CONTINUOUS"", ""SINGLE EVENT"".","Char","Record Qualifier","Perm","",""
"383","https://sdtm.d4k.dk/ig/AE/AEOUT","6a97a2ad-c717-49b4-a257-481b7e47be92","Outcome of Adverse Event","AEOUT","36","Description of the outcome of an event.","Char","Record Qualifier","Perm","",""
"384","https://sdtm.d4k.dk/ig/AE/AESCAN","1c4bc5a4-b72a-4afa-955d-cdc5c1728422","Involves Cancer","AESCAN","37","Was the serious event associated with the development of cancer? Valid values are ""Y"" and ""N"". This is a legacy seriousness criterion. It is not included in ICH E2A or E2B.","Char","Record Qualifier","Perm","",""
"385","https://sdtm.d4k.dk/ig/AE/AESCONG","e9259016-2f10-44d9-a2ae-5d7bfdc01d79","Congenital Anomaly or Birth Defect","AESCONG","38","Was the serious event associated with congenital anomaly or birth defect? Valid values are ""Y"" and ""N"".","Char","Record Qualifier","Perm","",""
"386","https://sdtm.d4k.dk/ig/AE/AESDISAB","86ef0cf1-7edc-4962-999f-a04f87800f7e","Persist or Signif Disability/Incapacity","AESDISAB","39","Did the serious event result in persistent or significant disability/incapacity? Valid values are ""Y"" and ""N"".","Char","Record Qualifier","Perm","",""
"387","https://sdtm.d4k.dk/ig/AE/AESDTH","bef84561-3dde-4ccf-9680-c574287651f6","Results in Death","AESDTH","40","Did the serious event result in death? Valid values are ""Y"" and ""N"".","Char","Record Qualifier","Perm","",""
"388","https://sdtm.d4k.dk/ig/AE/AESHOSP","b3cccb6d-2015-4378-8229-9a89e4698b43","Requires or Prolongs Hospitalization","AESHOSP","41","Did the serious event require or prolong hospitalization? Valid values are ""Y"" and ""N"".","Char","Record Qualifier","Perm","",""
"389","https://sdtm.d4k.dk/ig/AE/AESLIFE","3d545219-9db4-465c-a774-0be24cd0d1fa","Is Life Threatening","AESLIFE","42","Was the serious event life-threatening? Valid values are ""Y"" and ""N"".","Char","Record Qualifier","Perm","",""
"390","https://sdtm.d4k.dk/ig/AE/AESOD","78f75be0-173a-4fde-aaed-c2c4981c1dd1","Occurred with Overdose","AESOD","43","Did the serious event occur with an overdose? Valid values are ""Y"" and ""N"". This is a legacy seriousness criterion. It is not included in ICH E2A or E2B.","Char","Record Qualifier","Perm","",""
"391","https://sdtm.d4k.dk/ig/AE/AESMIE","e819a7ba-1f54-4097-b3c2-be6ce86c930e","Other Medically Important Serious Event","AESMIE","44","Do additional categories for seriousness apply? Valid values are ""Y"" and ""N"".","Char","Record Qualifier","Perm","",""
"392","https://sdtm.d4k.dk/ig/AE/AESINTV","b94670bc-9c31-4114-9ff9-6972d1f1789e","Needs Intervention to Prevent Impairment","AESINTV","45","Records whether medical or surgical intervention was necessary to preclude permanent impairment of a body function, or to prevent permanent damage to a body structure, with either situation suspected to be due to the use of a medical product. This variable is used in conjunction with the other ""seriousness"" variables (e.g., fatal, life-threatening). It is part of the US federal government definition of a serious adverse event; see 21 CFR Part 803.3(w)(3).","Char","Record Qualifier","Perm","",""
"393","https://sdtm.d4k.dk/ig/AE/AEUNANT","cde2f43c-f707-4ead-8271-36e30429ab9b","Unanticipated Adverse Device Effect","AEUNANT","46","Any serious adverse effect on health or safety or any life-threatening problem or death caused by or associated with a device, if that effect, problem, or death was not previously identified in nature, severity, or degree of incidence in the investigational plan or application (including a supplementary plan or application), \n or \n any other unanticipated serious problem associated with a device that relates to the rights, safety, or welfare of subjects. (21 CFR Part 812.3(s)). \n This variable applies only to serious AEs and should hold collected data; if the value is derived, it should be held in ADaM.","Char","Record Qualifier","Perm","",""
"394","https://sdtm.d4k.dk/ig/AE/AERLPRT","65744344-81a4-44aa-82ea-421ab5611c7f","Rel of AE to Non-Dev-Rel Study Activity","AERLPRT","47","The investigator's opinion as to the causality of the event as related to other protocol-required activities, actions, or assessments (e.g., medication changes, tests/assessments, other procedures). The relationship is to a protocol-specified, non-device-related activity where the device is identified in the data (i.e., has an SPDEVID). The device may be ancillary or under study. \n Terminology: \n * In the EU, follow the European Commission Guidelines on Medical Devices, Clinical Investigations: SAE Reporting (MEDDEV 2.7/3) (e.g., Not Related, Unlikely, Possible, Probable, Causal Relationship), with device-specific definitions. \n * No required Controlled Terminology in US.","Char","Record Qualifier","Perm","",""
"395","https://sdtm.d4k.dk/ig/AE/AERLPRC","c8f537b2-8ce7-4414-a628-92adc7340915","Rel of AE to Device-Related Procedure","AERLPRC","48","The investigator's opinion as to the likelihood that the device-related study procedure (e.g., implant/insertion, revision/adjustment, explant/removal) caused the AE. The relationship is to a device-related procedure where the device is identified in the data (i.e., has an SPDEVID). The device may be ancillary or under study. \n Terminology: \n * In the EU, follow the European Commission Guidelines on Medical Devices, Clinical Investigations: SAE Reporting (MEDDEV 2.7/3) (e.g., Not Related, Unlikely, Possible, Probable, Causal Relationship), with device-specific definitions. \n * No required Controlled Terminology in US.","Char","Record Qualifier","Perm","",""
"396","https://sdtm.d4k.dk/ig/AE/AECONTRT","19a01d4b-62cd-4937-b575-17b8ce9c8f2c","Concomitant or Additional Trtmnt Given","AECONTRT","49","Was another treatment given because of the occurrence of the event? Valid values are ""Y"" and ""N"".","Char","Record Qualifier","Perm","",""
"397","https://sdtm.d4k.dk/ig/AE/AETOXGR","c943f2ad-d4a7-4217-9e6f-ccff3811a86e","Standard Toxicity Grade","AETOXGR","50","Toxicity grade according to a standard toxicity scale (e.g., Common Terminology Criteria for Adverse Events, CTCAE). Sponsors should specify the name of the scale and version used in the metadata (see assumption 7d). If value is from a numeric scale, represent only the number (e.g., ""2"", not ""Grade 2"").","Char","Record Qualifier","Perm","",""
"398","https://sdtm.d4k.dk/ig/AE/TAETORD","82c9870c-4e03-48f5-8726-b763de34b851","Planned Order of Element within Arm","TAETORD","51","Number that gives the planned order of the element within the arm.","Num","Timing","Perm","",""
"399","https://sdtm.d4k.dk/ig/AE/EPOCH","1c934763-dce1-4ead-898b-7fc264e55dd4","Epoch","EPOCH","52","Epoch associated with the start date/time of the adverse event. Examples: ""SCREENING"", ""TREATMENT"", ""FOLLOW-UP"".","Char","Timing","Perm","",""
"400","https://sdtm.d4k.dk/ig/AE/AESTDTC","1c979e09-db67-48cf-85ee-e3607eea004b","Start Date/Time of Adverse Event","AESTDTC","53","Start date/time of the adverse event represented in ISO 8601 character format.","Char","Timing","Exp","ISO 8601 datetime or interval",""
"401","https://sdtm.d4k.dk/ig/AE/AEENDTC","104b0c16-ccbe-494d-8f50-2561460a9d9e","End Date/Time of Adverse Event","AEENDTC","54","End date/time of the adverse event represented in ISO 8601 character format.","Char","Timing","Exp","ISO 8601 datetime or interval",""
"402","https://sdtm.d4k.dk/ig/AE/AESTDY","911b5ef1-43a0-4c73-af95-faf1dc1d882d","Study Day of Start of Adverse Event","AESTDY","55","Study day of start of adverse event relative to the sponsor-defined RFSTDTC.","Num","Timing","Perm","",""
"403","https://sdtm.d4k.dk/ig/AE/AEENDY","242b883e-bc9d-4af5-bdb5-51a9c2433284","Study Day of End of Adverse Event","AEENDY","56","Study day of end of event relative to the sponsor-defined RFSTDTC.","Num","Timing","Perm","",""
"404","https://sdtm.d4k.dk/ig/AE/AEDUR","c76c0811-a94e-4f02-8bc2-e880417eecfa","Duration of Adverse Event","AEDUR","57","Collected duration and unit of an adverse event. Used only if collected on the CRF and not derived from start and end date/times. Example: ""P1DT2H"" (for 1 day, 2 hours).","Char","Timing","Perm","ISO 8601 duration",""
"405","https://sdtm.d4k.dk/ig/AE/AEENRF","d9f93c52-c5bb-43fd-8ba7-e9cb077982d7","End Relative to Reference Period","AEENRF","58","Describes the end of the event relative to the sponsor-defined reference period. The sponsor-defined reference period is a continuous period of time defined by a discrete starting point (RFSTDTC) and a discrete ending point (RFENDTC) of the trial. \n Not all values of the codelist are allowable for this variable. See Section 4.4.7, Use of Relative Timing Variables.","Char","Timing","Perm","",""
"406","https://sdtm.d4k.dk/ig/AE/AEENRTPT","0e3f10a9-ea62-4484-836c-9f96748a68ac","End Relative to Reference Time Point","AEENRTPT","59","Identifies the end of the event as being before or after the reference time point defined by variable AEENTPT. \n Not all values of the codelist are allowable for this variable. See Section 4.4.7, Use of Relative Timing Variables.","Char","Timing","Perm","",""
"407","https://sdtm.d4k.dk/ig/AE/AEENTPT","9a97579b-d7c0-4a91-83ab-c9cde2f43442","End Reference Time Point","AEENTPT","60","Description of date/time in ISO 8601 character format of the reference point referred to by AEENRTPT. Examples: ""2003-12-25"", ""VISIT 2"".","Char","Timing","Perm","",""
"408","https://sdtm.d4k.dk/ig/BE/STUDYID","fa673106-61e2-472a-bc9c-3a7c4af444d0","Study Identifier","STUDYID","1","Unique identifier for a study.","Char","Identifier","Req","",""
"409","https://sdtm.d4k.dk/ig/BE/DOMAIN","50a40622-28ec-461a-8bb0-5ba934b4a3cc","Domain Abbreviation","DOMAIN","2","Two-character abbreviation for the domain.","Char","Identifier","Req","",""
"410","https://sdtm.d4k.dk/ig/BE/USUBJID","cced82d4-a995-4351-95d2-2fa9045f36b4","Unique Subject Identifier","USUBJID","3","Identifier used to uniquely identify a subject across all studies for all applications or submissions involving the product.","Char","Identifier","Req","",""
"411","https://sdtm.d4k.dk/ig/BE/SPDEVID","17bbec7d-e451-4f7f-9769-688224c17acd","Sponsor Device Identifier","SPDEVID","4","Sponsor-defined identifier for a device.","Char","Identifier","Perm","",""
"412","https://sdtm.d4k.dk/ig/BE/BESEQ","20f65b87-43c0-4478-9994-eaf70a3d0a13","Sequence Number","BESEQ","5","Sequence number to ensure uniqueness of records within a dataset for a subject. May be any valid number (including decimals) and does not have to start at 1.","Num","Identifier","Req","",""
"413","https://sdtm.d4k.dk/ig/BE/BEGRPID","74aa8726-9eec-40e4-9bfa-6b50125fa2b2","Group ID","BEGRPID","6","Optional group identifier, used to link together a block of related records within a subject in a domain.","Char","Identifier","Perm","",""
"414","https://sdtm.d4k.dk/ig/BE/BEREFID","143ce7c7-1f4b-4a9e-88ca-51fb321ba624","Reference ID","BEREFID","7","Internal or external identifier for the specimen affected or created by the event.","Char","Identifier","Exp","",""
"415","https://sdtm.d4k.dk/ig/BE/BESPID","bd1ef7e3-9ac5-4229-a82c-2b3a71351ae9","Sponsor-Defined Identifier","BESPID","8","Optional sponsor-defined reference number. Example: Line number on a CRF page.","Char","Identifier","Perm","",""
"416","https://sdtm.d4k.dk/ig/BE/BETERM","e0c9da5d-9d45-451e-9f96-eb7d847e896f","Reported Term for the Biospecimen Event","BETERM","9","Topic variable for an event observation, which is the verbatim or pre-specified name of the event.","Char","Topic","Req","",""
"417","https://sdtm.d4k.dk/ig/BE/BEMODIFY","178d2411-a64f-4d9e-841e-e9d6587188f6","Modified Reported Term","BEMODIFY","10","If the value for BETERM is modified for coding purposes, then the modified text is placed here.","Char","Synonym Qualifier","Perm","",""
"418","https://sdtm.d4k.dk/ig/BE/BEDECOD","1f9a0240-1547-4f34-9a76-8d88ff84ce84","Dictionary-Derived Term","BEDECOD","11","Dictionary-derived text description of BETERM or BEMODIFY, if applicable.","Char","Synonym Qualifier","Perm","",""
"419","https://sdtm.d4k.dk/ig/BE/BECAT","d24c9d7b-01bc-47dc-9208-7b43a56c862e","Category for Biospecimen Event","BECAT","12","Used to define a category of topic-variable values. Example: COLLECTION, PREPARATION, TRANSPORT.","Char","Grouping Qualifier","Perm","",""
"420","https://sdtm.d4k.dk/ig/BE/BESCAT","fcb67fff-40bd-452b-bf8a-ca740729ce22","Subcategory for Biospecimen Event","BESCAT","13","A further categorization of BECAT values.","Char","Grouping Qualifier","Perm","",""
"421","https://sdtm.d4k.dk/ig/BE/BELOC","2b38d996-f7b6-4987-bc49-555ca891bd7e","Anatomical Location of Event","BELOC","14","Describes the anatomical location relevant for the event (e.g. BRAIN, LUNG).","Char","Record Qualifier","Perm","",""
"422","https://sdtm.d4k.dk/ig/BE/BEPARTY","4bc53386-756e-4936-8bfa-5615cc6d0569","Accountable Party","BEPARTY","15","Party accountable for the transferable object (e.g. specimen) as a result of the activity performed in the associated BETERM variable. The party could be an individual (e.g., subject), an organization (e.g., sponsor), or a location that is a proxy for an individual or organization (e.g., site). It is usually a somewhat general term that is further identified in the BEPRTYID variable.","Char","Record Qualifier","Perm","",""
"423","https://sdtm.d4k.dk/ig/BE/BEPRTYID","bb000f69-ec22-4dee-b130-a69e6038215b","Identification of Accountable Party","BEPRTYID","16","Identification of the specific party accountable for the transferable object (e.g. Specimen) after the action in BETERM is taken. Used in conjunction with BEPARTY.","Char","Record Qualifier","Perm","",""
"424","https://sdtm.d4k.dk/ig/BE/VISITNUM","292095a1-0d7f-41d2-a45c-e0feda24fc99","Visit Number","VISITNUM","17","Clinical encounter number. Numeric version of VISIT, used for sorting.","Num","Timing","Exp","",""
"425","https://sdtm.d4k.dk/ig/BE/VISIT","a8e28137-3f96-4780-96b9-4d0f5be06d2e","Visit Name","VISIT","18","Protocol-defined description of clinical encounter.","Char","Timing","Perm","",""
"426","https://sdtm.d4k.dk/ig/BE/VISITDY","f24827d8-206c-4641-a2d7-45987b6888ad","Planned Study Day of Visit","VISITDY","19","Planned study day of VISIT. Should be an integer.","Num","Timing","Perm","",""
"427","https://sdtm.d4k.dk/ig/BE/BEDTC","a7aae737-daac-4600-8b16-3ecfc9e2f38c","Date/Time of Specimen Collection","BEDTC","20","Date and time of specimen collection.","Char","Timing","Exp","ISO 8601 datetime or interval",""
"428","https://sdtm.d4k.dk/ig/BE/BESTDTC","afd38323-73d9-46ca-9d2c-c5284b0810e8","Start Date/Time of Biospecimen Event","BESTDTC","21","Start date/time of the event.","Char","Timing","Exp","ISO 8601 datetime or interval",""
"429","https://sdtm.d4k.dk/ig/BE/BEENDTC","f1282524-ed81-436d-86b9-96b686a1b62d","End Date/Time of Biospecimen Event","BEENDTC","22","End date/time of the event.","Char","Timing","Exp","ISO 8601 datetime or interval",""
"430","https://sdtm.d4k.dk/ig/BE/BESTDY","edc86429-6346-4a81-9b5c-c521307b0443","Study Day of Start of Biospecimen Event","BESTDY","23","Actual study day of start of observation expressed in integer days relative to the sponsor-defined RFSTDTC in Demographics.","Num","Timing","Perm","",""
"431","https://sdtm.d4k.dk/ig/BE/BEENDY","049e0eaf-961d-4bc1-8740-2ff0baf66783","Study Day of End of Biospecimen Event","BEENDY","24","Actual study day of end of observation expressed in integer days relative to the sponsor-defined RFSTDTC in Demographics.","Num","Timing","Perm","",""
"432","https://sdtm.d4k.dk/ig/BE/BEDUR","962108f0-4846-4320-bbd3-e54c833e4b12","Duration of Biospecimen Event","BEDUR","25","Collected duration and unit of a biospecimen event. Used only if collected on the CRF and not derived from start and end date/times. Example: P1DT2H (for 1 day, 2 hours).","Char","Timing","Perm","ISO 8601 duration",""
"433","https://sdtm.d4k.dk/ig/CE/STUDYID","976b16b4-c0a5-476c-8dca-d5bca7a72816","Study Identifier","STUDYID","1","Unique identifier for a study.","Char","Identifier","Req","",""
"434","https://sdtm.d4k.dk/ig/CE/DOMAIN","67710be5-b539-499c-b6e5-26f6d6b7f886","Domain Abbreviation","DOMAIN","2","Two-character abbreviation for the domain.","Char","Identifier","Req","",""
"435","https://sdtm.d4k.dk/ig/CE/USUBJID","df557a4c-75bf-42f2-8046-56df607dc625","Unique Subject Identifier","USUBJID","3","Identifier used to uniquely identify a subject across all studies for all applications or submissions involving the product.","Char","Identifier","Req","",""
"436","https://sdtm.d4k.dk/ig/CE/CESEQ","36b95588-ca4f-42f4-8ccd-7b8b4f368477","Sequence Number","CESEQ","4","Sequence number given to ensure uniqueness of subject records within a domain. May be any valid number.","Num","Identifier","Req","",""
"437","https://sdtm.d4k.dk/ig/CE/CEGRPID","89e4f966-9849-4140-8413-24c51c092d88","Group ID","CEGRPID","5","Used to link together a block of related records for a subject within a domain.","Char","Identifier","Perm","",""
"438","https://sdtm.d4k.dk/ig/CE/CEREFID","440249c2-7494-4eeb-94b9-7dafae8af942","Reference ID","CEREFID","6","Internal or external identifier (e.g., lab specimen ID, UUID for an ECG waveform or medical image).","Char","Identifier","Perm","",""
"439","https://sdtm.d4k.dk/ig/CE/CESPID","b7a23487-1f82-4136-99cf-e4200d140379","Sponsor-Defined Identifier","CESPID","7","Sponsor-defined identifier.","Char","Identifier","Perm","",""
"440","https://sdtm.d4k.dk/ig/CE/CETERM","c4b7a61a-5a1e-462d-ba43-53b84ae206c9","Reported Term for the Clinical Event","CETERM","8","Term for the medical condition or event. Most likely preprinted on CRF.","Char","Topic","Req","",""
"441","https://sdtm.d4k.dk/ig/CE/CEDECOD","c8a44849-7b4b-49bc-bb7b-23f41c2215da","Dictionary-Derived Term","CEDECOD","9","Controlled terminology for the name of the clinical event. The sponsor is expected to provide the dictionary name and version used to map the terms utilizing the external codelist element in the Define-XML document.","Char","Synonym Qualifier","Perm","",""
"442","https://sdtm.d4k.dk/ig/CE/CECAT","b24663b1-9bd6-4fa7-b1b5-ce1202290075","Category for the Clinical Event","CECAT","10","Used to define a category of related records.","Char","Grouping Qualifier","Perm","",""
"443","https://sdtm.d4k.dk/ig/CE/CESCAT","e9318d9b-85a9-48b3-a9a8-53d354d581ff","Subcategory for the Clinical Event","CESCAT","11","A further categorization of the condition or event.","Char","Grouping Qualifier","Perm","",""
"444","https://sdtm.d4k.dk/ig/CE/CEPRESP","5e8e7b71-43d5-4b57-b52b-c5439699a30c","Clinical Event Pre-specified","CEPRESP","12","Used to indicate whether the event in CETERM was prespecified. Value is ""Y"" for prespecified events and null for spontaneously reported events.","Char","Variable Qualifier","Perm","",""
"445","https://sdtm.d4k.dk/ig/CE/CEOCCUR","23fdf9fc-bb1e-469b-9302-c536d2888c24","Clinical Event Occurrence","CEOCCUR","13","Used when the occurrence of specific events is solicited, to indicate whether or not a clinical event occurred. Values are null for spontaneously reported events.","Char","Record Qualifier","Perm","",""
"446","https://sdtm.d4k.dk/ig/CE/CESTAT","c8d9dc02-0155-481c-8788-1788b66f2d2b","Completion Status","CESTAT","14","The status indicates that a question from a prespecified list was not answered.","Char","Record Qualifier","Perm","",""
"447","https://sdtm.d4k.dk/ig/CE/CEREASND","43e083a9-e6ae-4c0d-8e23-1df5abd3be06","Reason Clinical Event Not Collected","CEREASND","15","Describes the reason clinical event data was not collected. Used in conjunction with CESTAT when value is ""NOT DONE"".","Char","Record Qualifier","Perm","",""
"448","https://sdtm.d4k.dk/ig/CE/CEBODSYS","f68644c5-8934-46bb-848c-3d5bd7aef374","Body System or Organ Class","CEBODSYS","16","Dictionary-derived. Body system or organ class that is involved in an event or measurement from a standard hierarchy (e.g., MedDRA). When using a multi-axial dictionary such as MedDRA, this should contain the SOC used for the sponsor's analyses and summary tables, which may not necessarily be the primary SOC.","Char","Record Qualifier","Perm","",""
"449","https://sdtm.d4k.dk/ig/CE/CESEV","e2951fb9-d779-4e5d-a4dd-bb1f205b29bc","Severity/Intensity","CESEV","17","The severity or intensity of the event. Examples: ""MILD"", ""MODERATE"", ""SEVERE"".","Char","Record Qualifier","Perm","",""
"450","https://sdtm.d4k.dk/ig/CE/CETOXGR","4c52ccad-d191-4a21-8fb6-8d47ef0c6b1b","Standard Toxicity Grade","CETOXGR","18","Toxicity grade according to a standard toxicity scale (e.g., Common Terminology Criteria for Adverse Events (CTCAE) v3.0). Sponsor should specify name of the scale and version used in the metadata. If value is from a numeric scale, represent only the number (e.g., ""2"", not ""Grade 2"").","Char","Record Qualifier","Perm","",""
"451","https://sdtm.d4k.dk/ig/CE/TAETORD","2e64e044-15bc-446b-8a86-eadaa19ec0ec","Planned Order of Element within Arm","TAETORD","19","Number that gives the planned order of the element within the arm for the element in which the clinical event started.","Num","Timing","Perm","",""
"452","https://sdtm.d4k.dk/ig/CE/EPOCH","a4833619-b43c-4d5f-a7a6-91c0064dedc3","Epoch","EPOCH","20","Epoch associated with the start date/time of the clinical event.","Char","Timing","Perm","",""
"453","https://sdtm.d4k.dk/ig/CE/CEDTC","3f166c42-3369-4eca-b03b-646ae32b7801","Date/Time of Event Collection","CEDTC","21","Collection date and time for the clinical event observation represented in ISO 8601 character format.","Char","Timing","Perm","ISO 8601 datetime or interval",""
"454","https://sdtm.d4k.dk/ig/CE/CESTDTC","31b49684-f564-48a8-8daf-75906ea92360","Start Date/Time of Clinical Event","CESTDTC","22","Start date/time of the clinical event represented in ISO 8601 character format.","Char","Timing","Perm","ISO 8601 datetime or interval",""
"455","https://sdtm.d4k.dk/ig/CE/CEENDTC","55feee7b-d098-45c8-a981-896686239feb","End Date/Time of Clinical Event","CEENDTC","23","End date/time of the clinical event, represented in ISO 8601 character format.","Char","Timing","Perm","ISO 8601 datetime or interval",""
"456","https://sdtm.d4k.dk/ig/CE/CEDY","0170e127-fd1f-4efd-a8c5-e2a8ee485fa6","Study Day of Event Collection","CEDY","24","Study day of clinical event collection, measured as integer days. Algorithm for calculations must be relative to the sponsor-defined RFSTDTC variable in Demographics. This formula should be consistent across the submission.","Num","Timing","Perm","",""
"457","https://sdtm.d4k.dk/ig/CE/CESTDY","e01cca4d-0eb6-43be-ac4c-b5b2e2cc82e5","Study Day of Start of Event","CESTDY","25","Actual study day of start of the clinical event expressed in integer days relative to the sponsor-defined RFSTDTC in Demographics.","Num","Timing","Perm","",""
"458","https://sdtm.d4k.dk/ig/CE/CEENDY","7224fc4f-1530-463a-967e-5482fe6a55e3","Study Day of End of Event","CEENDY","26","Actual study day of end of the clinical event expressed in integer days relative to the sponsor-defined RFSTDTC in Demographics.","Num","Timing","Perm","",""
"459","https://sdtm.d4k.dk/ig/CE/CESTRF","94f17635-52e1-4e64-bb4a-e2520734635e","Start Relative to Reference Period","CESTRF","27","Describes the start of the clinical event relative to the sponsor-defined reference period. The sponsor-defined reference period is a continuous period of time defined by a discrete starting point and a discrete ending point (represented by RFSTDTC and RFENDTC in Demographics). \n Not all values of the codelist are allowable for this variable. See Section 4.4.7, Use of Relative Timing Variables.","Char","Timing","Perm","",""
"460","https://sdtm.d4k.dk/ig/CE/CEENRF","5b8bcd0f-0976-4ce5-a6e9-73209620507c","End Relative to Reference Period","CEENRF","28","Describes the end of the event relative to the sponsor-defined reference period. The sponsor-defined reference period is a continuous period of time defined by a discrete starting point and a discrete ending point (represented by RFSTDTC and RFENDTC in Demographics). \n Not all values of the codelist are allowable for this variable. See Section 4.4.7, Use of Relative Timing Variables.","Char","Timing","Perm","",""
"461","https://sdtm.d4k.dk/ig/CE/CESTRTPT","31aa0c57-b0dc-4558-af87-5268173bb518","Start Relative to Reference Time Point","CESTRTPT","29","Identifies the start of the observation as being before or after the reference time point defined by variable CESTTPT. \n Not all values of the codelist are allowable for this variable. See Section 4.4.7, Use of Relative Timing Variables.","Char","Timing","Perm","",""
"462","https://sdtm.d4k.dk/ig/CE/CESTTPT","7903ad90-8c2b-4ff1-ad63-f1e8a1bf5d82","Start Reference Time Point","CESTTPT","30","Description or date/time in ISO 8601 character format of the sponsor-defined reference point referred to by --STRTPT. Examples: ""2003-12-15"", ""VISIT 1"".","Char","Timing","Perm","",""
"463","https://sdtm.d4k.dk/ig/CE/CEENRTPT","a7764993-6efe-468a-afd3-62217bb1e8af","End Relative to Reference Time Point","CEENRTPT","31","Identifies the end of the observation as being before or after the sponsor-defined reference time point defined by variable CEENTPT. \n Not all values of the codelist are allowable for this variable. See Section 4.4.7, Use of Relative Timing Variables.","Char","Timing","Perm","",""
"464","https://sdtm.d4k.dk/ig/CE/CEENTPT","150cfd4b-6572-4bcf-94a7-df0664c82278","End Reference Time Point","CEENTPT","32","Description or date/time in ISO 8601 character format of the reference point referred to by CEENRTPT. Examples: ""2003-12-25"", ""VISIT 2"".","Char","Timing","Perm","",""
"465","https://sdtm.d4k.dk/ig/DS/STUDYID","3368d029-c16f-4a73-b501-53504ad81f54","Study Identifier","STUDYID","1","Unique identifier for a study.","Char","Identifier","Req","",""
"466","https://sdtm.d4k.dk/ig/DS/DOMAIN","5e536df4-fd4f-4684-a97a-268f4002f906","Domain Abbreviation","DOMAIN","2","Two-character abbreviation for the domain.","Char","Identifier","Req","",""
"467","https://sdtm.d4k.dk/ig/DS/USUBJID","4c161459-e78b-4eb0-8fb6-9965a56a4624","Unique Subject Identifier","USUBJID","3","Identifier used to uniquely identify a subject across all studies for all applications or submissions involving the product.","Char","Identifier","Req","",""
"468","https://sdtm.d4k.dk/ig/DS/DSSEQ","631608f9-10b3-4350-90ca-dac3222a0899","Sequence Number","DSSEQ","4","Sequence number given to ensure uniqueness of subject records within a domain. May be any valid number.","Num","Identifier","Req","",""
"469","https://sdtm.d4k.dk/ig/DS/DSGRPID","7bf9c45f-05be-4215-a6ea-00b2e75bce74","Group ID","DSGRPID","5","Used to tie together a block of related records in a single domain for a subject.","Char","Identifier","Perm","",""
"470","https://sdtm.d4k.dk/ig/DS/DSREFID","d7d0b561-4855-4f94-96ae-634952115db2","Reference ID","DSREFID","6","Internal or external identifier.","Char","Identifier","Perm","",""
"471","https://sdtm.d4k.dk/ig/DS/DSSPID","da3c81e7-4c61-4297-bfb3-d92225307123","Sponsor-Defined Identifier","DSSPID","7","Sponsor-defined reference number. May be preprinted on the CRF as an explicit line identifier or defined in the sponsor's operational database. Example: Line number on a Disposition page.","Char","Identifier","Perm","",""
"472","https://sdtm.d4k.dk/ig/DS/DSTERM","c57367b5-9e37-4ce1-b098-3918334fc904","Reported Term for the Disposition Event","DSTERM","8","Verbatim name of the event or protocol milestone. Some terms in DSTERM will match DSDECOD, but others, such as ""Subject moved"", will map to controlled terminology in DSDECOD, such as ""LOST TO FOLLOW-UP"".","Char","Topic","Req","",""
"473","https://sdtm.d4k.dk/ig/DS/DSDECOD","cd2475ee-18f2-4752-847b-488788f0fb4a","Standardized Disposition Term","DSDECOD","9","Controlled terminology for the name of disposition event or protocol milestone. Examples of protocol milestones: ""INFORMED CONSENT OBTAINED"", ""RANDOMIZED"". There are separate codelists used for DSDECOD where the choice depends on the value of DSCAT. Codelist ""NCOMPLT"" is used for disposition events, codelist ""PROTMLST"" is used for protocol milestones, and codelist ""OTHEVENT"" is used for other events.","Char","Synonym Qualifier","Req","",""
"474","https://sdtm.d4k.dk/ig/DS/DSCAT","1722429f-5f81-4883-a574-d9e08a2f3007","Category for Disposition Event","DSCAT","10","Used to define a category of related records.","Char","Grouping Qualifier","Exp","",""
"475","https://sdtm.d4k.dk/ig/DS/DSSCAT","3d29111c-b812-4bcf-903c-0636a521e312","Subcategory for Disposition Event","DSSCAT","11","A further categorization of DSCAT (e.g., ""STUDY PARTICIPATION"", ""STUDY TREATMENT"" when DSCAT = ""DISPOSITION EVENT""). The variable may be subject to controlled terminology for other categories of disposition event records.","Char","Grouping Qualifier","Perm","",""
"476","https://sdtm.d4k.dk/ig/DS/EPOCH","d02451e2-3d3c-45c3-813f-bb7687fec53b","Epoch","EPOCH","12","Epoch associated with the start date/time of the event.","Char","Timing","Perm","",""
"477","https://sdtm.d4k.dk/ig/DS/DSDTC","480ef427-4e61-41c0-a370-c826953ded6f","Date/Time of Collection","DSDTC","13","Collection date and time of the disposition observation represented in ISO 8601 character format.","Char","Timing","Perm","ISO 8601 datetime or interval",""
"478","https://sdtm.d4k.dk/ig/DS/DSSTDTC","ff56a80d-852a-4730-9180-0971061c6c8c","Start Date/Time of Disposition Event","DSSTDTC","14","Start date/time of the disposition event in ISO 8601 character format.","Char","Timing","Exp","ISO 8601 datetime or interval",""
"479","https://sdtm.d4k.dk/ig/DS/DSDY","76a8572f-cc92-4010-8ceb-7974c6b43117","Study Day of Collection","DSDY","15","Study day of collection of event relative to the sponsor-defined RFSTDTC.","Num","Timing","Perm","",""
"480","https://sdtm.d4k.dk/ig/DS/DSSTDY","ffb09988-1206-45cf-b886-826f52a5f246","Study Day of Start of Disposition Event","DSSTDY","16","Study day of start of event relative to the sponsor-defined RFSTDTC.","Num","Timing","Exp","",""
"481","https://sdtm.d4k.dk/ig/DV/STUDYID","a41ca6b4-c1df-40fb-b7e1-b31a51c49269","Study Identifier","STUDYID","1","Unique identifier for a study.","Char","Identifier","Req","",""
"482","https://sdtm.d4k.dk/ig/DV/DOMAIN","920f61d6-5cfc-4f8a-9d3c-0c1d72a44496","Domain Abbreviation","DOMAIN","2","Two-character abbreviation for the domain.","Char","Identifier","Req","",""
"483","https://sdtm.d4k.dk/ig/DV/USUBJID","57d3960d-5b2b-444e-b133-6b35538b670c","Unique Subject Identifier","USUBJID","3","Identifier used to uniquely identify a subject across all studies for all applications or submissions involving the product.","Char","Identifier","Req","",""
"484","https://sdtm.d4k.dk/ig/DV/DVSEQ","8676ef0e-af7f-41ce-a6f2-b66d7a19d460","Sequence Number","DVSEQ","4","Sequence number given to ensure uniqueness of subject records within a domain. May be any valid number.","Num","Identifier","Req","",""
"485","https://sdtm.d4k.dk/ig/DV/DVREFID","02bf47a8-c6fe-45c2-bd36-cbfee40061ce","Reference ID","DVREFID","5","Internal or external identifier.","Char","Identifier","Perm","",""
"486","https://sdtm.d4k.dk/ig/DV/DVSPID","40801268-92bd-417c-9178-80122691ec6d","Sponsor-Defined Identifier","DVSPID","6","Sponsor-defined reference number. May be preprinted on the CRF as an explicit line identifier or defined in the sponsor's operational database. Example: Line number on a CRF page.","Char","Identifier","Perm","",""
"487","https://sdtm.d4k.dk/ig/DV/DVTERM","9566ac81-9833-4cc2-9b9c-b201ec8479c3","Protocol Deviation Term","DVTERM","7","Verbatim name of the protocol deviation criterion. Example: ""IVRS PROCESS DEVIATION - NO DOSE CALL PERFORMED"". DVTERM values will map to the controlled terminology in DVDECOD (e.g., ""TREATMENT DEVIATION"").","Char","Topic","Req","",""
"488","https://sdtm.d4k.dk/ig/DV/DVDECOD","58ddec19-7441-4165-b796-479585f5bee0","Protocol Deviation Coded Term","DVDECOD","8","Controlled terminology for the name of the protocol deviation. Examples: ""SUBJECT NOT WITHDRAWN AS PER PROTOCOL"", ""SELECTION CRITERIA NOT MET"", ""EXCLUDED CONCOMITANT MEDICATION"", ""TREATMENT DEVIATION"".","Char","Synonym Qualifier","Perm","",""
"489","https://sdtm.d4k.dk/ig/DV/DVCAT","ea9c065f-ed4b-4e50-b262-0ec715e0c3ec","Category for Protocol Deviation","DVCAT","9","Category of the protocol deviation criterion.","Char","Grouping Qualifier","Perm","",""
"490","https://sdtm.d4k.dk/ig/DV/DVSCAT","45e20fc0-f43a-4493-992a-985c3f42dac7","Subcategory for Protocol Deviation","DVSCAT","10","A further categorization of the protocol deviation.","Char","Grouping Qualifier","Perm","",""
"491","https://sdtm.d4k.dk/ig/DV/TAETORD","966e567e-45d1-4566-8816-6ae74b3aff1b","Planned Order of Element within Arm","TAETORD","11","Number that gives the planned order of the element within the arm.","Num","Timing","Perm","",""
"492","https://sdtm.d4k.dk/ig/DV/EPOCH","30294a31-dc63-46ba-b69b-b552e76eabe4","Epoch","EPOCH","12","Epoch associated with the start date/time of the deviation. Examples: ""TREATMENT"", ""SCREENING"", ""FOLLOW-UP"".","Char","Timing","Perm","",""
"493","https://sdtm.d4k.dk/ig/DV/DVSTDTC","a27aabb6-d722-41f4-9219-44708a7e7a75","Start Date/Time of Deviation","DVSTDTC","13","Start date/time of deviation represented in ISO 8601 character format.","Char","Timing","Perm","ISO 8601 datetime or interval",""
"494","https://sdtm.d4k.dk/ig/DV/DVENDTC","09f39e29-3911-4ffb-a785-d1660c6a5255","End Date/Time of Deviation","DVENDTC","14","End date/time of deviation represented in ISO 8601 character format.","Char","Timing","Perm","ISO 8601 datetime or interval",""
"495","https://sdtm.d4k.dk/ig/DV/DVSTDY","f2691c03-bea6-498f-9a71-8368ba915598","Study Day of Start of Deviation Event","DVSTDY","15","Study day of start of event relative to the sponsor-defined RFSTDTC.","Num","Timing","Perm","",""
"496","https://sdtm.d4k.dk/ig/DV/DVENDY","e46a57dd-c598-4e6e-a71b-9c12e5755c6d","Study Day of End of Deviation Event","DVENDY","16","Study day of end of event relative to the sponsor-defined RFSTDTC.","Num","Timing","Perm","",""
"497","https://sdtm.d4k.dk/ig/HO/STUDYID","5ac03aa9-6dfe-48b7-a7ec-43f996ef7e4d","Study Identifier","STUDYID","1","Unique identifier for a study.","Char","Identifier","Req","",""
"498","https://sdtm.d4k.dk/ig/HO/DOMAIN","9081a41a-14e7-4fa7-a6de-698e7655d06f","Domain Abbreviation","DOMAIN","2","Two-character abbreviation for the domain.","Char","Identifier","Req","",""
"499","https://sdtm.d4k.dk/ig/HO/USUBJID","a8ba5fa6-14bc-4f8c-8431-e5820b9a7ad8","Unique Subject Identifier","USUBJID","3","Identifier used to uniquely identify a subject across all studies for all applications or submissions involving the product.","Char","Identifier","Req","",""
"500","https://sdtm.d4k.dk/ig/HO/HOSEQ","dfd51c7f-7a84-4bbb-99cf-48cd6fb6f612","Sequence Number","HOSEQ","4","Sequence number given to ensure uniqueness of subject records within a domain. May be any valid number.","Num","Identifier","Req","",""
"501","https://sdtm.d4k.dk/ig/HO/HOGRPID","38867e2b-dde7-45b9-842b-022f009e07b1","Group ID","HOGRPID","5","Used to tie together a block of related records in a single domain for a subject.","Char","Identifier","Perm","",""
"502","https://sdtm.d4k.dk/ig/HO/HOREFID","f8133f86-3c94-4116-906e-503d2060b812","Reference ID","HOREFID","6","Internal or external healthcare encounter identifier.","Char","Identifier","Perm","",""
"503","https://sdtm.d4k.dk/ig/HO/HOSPID","57875f45-d75f-45f7-88fd-a030dfe903d2","Sponsor-Defined Identifier","HOSPID","7","Sponsor-defined identifier. May be preprinted on the CRF as an explicit line identifier or defined in the sponsor's operational database. Example: Line number on a Healthcare Encounters CRF page.","Char","Identifier","Perm","",""
"504","https://sdtm.d4k.dk/ig/HO/HOTERM","e8d5e648-9d13-47cc-9b56-dee523cd1d03","Healthcare Encounter Term","HOTERM","8","Verbatim or preprinted CRF term for the healthcare encounter.","Char","Topic","Req","",""
"505","https://sdtm.d4k.dk/ig/HO/HODECOD","fc8abafd-2ae6-4a4a-8575-98c5da9b5fa2","Dictionary-Derived Term","HODECOD","9","Dictionary or sponsor-defined derived text description of HOTERM or the modified topic variable (HOMODIFY).","Char","Synonym Qualifier","Perm","",""
"506","https://sdtm.d4k.dk/ig/HO/HOCAT","ef53983b-48fa-4553-a023-e6a9ae802f8e","Category for Healthcare Encounter","HOCAT","10","Used to define a category of topic-related values.","Char","Grouping Qualifier","Perm","",""
"507","https://sdtm.d4k.dk/ig/HO/HOSCAT","c0cdee5e-c0c4-4ee2-95a7-cc6687644ff5","Subcategory for Healthcare Encounter","HOSCAT","11","A further categorization of HOCAT values.","Char","Grouping Qualifier","Perm","",""
"508","https://sdtm.d4k.dk/ig/HO/HOPRESP","08d1acd8-e873-43ad-8c57-9fe52864edc3","Pre-Specified Healthcare Encounter","HOPRESP","12","A value of ""Y"" indicates that this healthcare encounter event was prespecified on the CRF. Values are null for spontaneously reported events (i.e., those collected as free-text verbatim terms).","Char","Variable Qualifier","Perm","",""
"509","https://sdtm.d4k.dk/ig/HO/HOOCCUR","202cab5d-a9af-490e-9721-fedb50940492","Healthcare Encounter Occurrence","HOOCCUR","13","Used when the occurrence of specific healthcare encounters is solicited, to indicate whether an encounter occurred. Values are null for spontaneously reported events.","Char","Record Qualifier","Perm","",""
"510","https://sdtm.d4k.dk/ig/HO/HOSTAT","da9e0ddb-88a0-406b-8a8c-6a5ef59c8d02","Completion Status","HOSTAT","14","The status indicates that the prespecified question was not answered.","Char","Record Qualifier","Perm","",""
"511","https://sdtm.d4k.dk/ig/HO/HOREASND","1a5166f7-2b6e-41ae-ae47-d433679553dd","Reason Healthcare Encounter Not Done","HOREASND","15","Describes the reason data for a prespecified event were not collected. Used in conjunction with HOSTAT when value is ""NOT DONE"".","Char","Record Qualifier","Perm","",""
"512","https://sdtm.d4k.dk/ig/HO/TAETORD","99d14da0-d6b9-4050-8dcf-2d6aeafeab0e","Planned Order of Element within Arm","TAETORD","16","Number that gives the planned order of the element within the arm.","Num","Timing","Perm","",""
"513","https://sdtm.d4k.dk/ig/HO/EPOCH","9f607e8a-7f54-4f0d-bc96-aa4613b97ed0","Epoch","EPOCH","17","Epoch associated with the start date/time of the healthcare encounter. Examples: ""SCREENING"", ""TREATMENT"", ""FOLLOW-UP"".","Char","Timing","Perm","",""
"514","https://sdtm.d4k.dk/ig/HO/HODTC","6ed8b977-d533-401b-9ec7-7ddd85175327","Date/Time of Event Collection","HODTC","18","Collection date and time of the healthcare encounter.","Char","Timing","Perm","ISO 8601 datetime or interval",""
"515","https://sdtm.d4k.dk/ig/HO/HOSTDTC","dd23b5f8-fbf0-4833-a0d7-05819f8acbde","Start Date/Time of Healthcare Encounter","HOSTDTC","19","Start date/time of the healthcare encounter (e.g., date of admission).","Char","Timing","Exp","ISO 8601 datetime or interval",""
"516","https://sdtm.d4k.dk/ig/HO/HOENDTC","3b2d0c5f-9b56-46e4-9607-b532a95f83f1","End Date/Time of Healthcare Encounter","HOENDTC","20","End date/time of the healthcare encounter (e.g., date of discharge).","Char","Timing","Perm","ISO 8601 datetime or interval",""
"517","https://sdtm.d4k.dk/ig/HO/HODY","4d98e644-c31f-48f3-b7cc-333134bb35dd","Study Day of Event Collection","HODY","21","Study day of event collection relative to the sponsor-defined RFSTDTC.","Num","Timing","Perm","",""
"518","https://sdtm.d4k.dk/ig/HO/HOSTDY","5a670bb6-9831-4adc-b538-578d53a77623","Study Day of Start of Encounter","HOSTDY","22","Study day of the start of the healthcare encounter relative to the sponsor-defined RFSTDTC.","Num","Timing","Perm","",""
"519","https://sdtm.d4k.dk/ig/HO/HOENDY","65a78980-0eda-4a6f-8f2e-c12bbfa1d0f5","Study Day of End of Healthcare Encounter","HOENDY","23","Study day of the end of the healthcare encounter relative to the sponsor-defined RFSTDTC.","Num","Timing","Perm","",""
"520","https://sdtm.d4k.dk/ig/HO/HODUR","2242c0f5-63fc-463f-9618-eacdac7801a1","Duration of Healthcare Encounter","HODUR","24","Collected duration of the healthcare encounter. Used only if collected on the CRF and not derived from the start and end date/times. Example: ""P1DT2H"" (for 1 day, 2 hours).","Char","Timing","Perm","ISO 8601 duration",""
"521","https://sdtm.d4k.dk/ig/HO/HOSTRTPT","2fed1eb4-5fc9-45de-932c-b9e660e45d3b","Start Relative to Reference Time Point","HOSTRTPT","25","Identifies the start of the observation as being before or after the sponsor-defined reference time point defined by variable --STTPT. \n Not all values of the codelist are allowable for this variable. See Section 4.4.7, Use of Relative Timing Variables.","Char","Timing","Perm","",""
"522","https://sdtm.d4k.dk/ig/HO/HOSTTPT","cc1e459c-8324-463d-bab8-d63ea1da3fdb","Start Reference Time Point","HOSTTPT","26","Description or date/time in ISO 8601 character format of the sponsor-defined reference point referred to by STRTPT. Examples: ""2003-12-15"", ""VISIT 1"".","Char","Timing","Perm","",""
"523","https://sdtm.d4k.dk/ig/HO/HOENRTPT","cf12fa1c-6443-4b84-8cb1-95e452348f36","End Relative to Reference Time Point","HOENRTPT","27","Identifies the end of the event as being before or after the reference time point defined by variable HOENTPT. \n Not all values of the codelist are allowable for this variable. See Section 4.4.7, Use of Relative Timing Variables.","Char","Timing","Perm","",""
"524","https://sdtm.d4k.dk/ig/HO/HOENTPT","981e78f9-aec1-441a-b2f8-0673247c3f8a","End Reference Time Point","HOENTPT","28","Description or date/time in ISO 8601 character format of the reference point referred to by HOENRTPT. Examples: ""2003-12-25"", ""VISIT 2"".","Char","Timing","Perm","",""
"525","https://sdtm.d4k.dk/ig/MH/STUDYID","c9ef663f-f77b-4ab9-a853-828b7896402a","Study Identifier","STUDYID","1","Unique identifier for a study.","Char","Identifier","Req","",""
"526","https://sdtm.d4k.dk/ig/MH/DOMAIN","bdc64222-1334-48a4-9b3b-d58b02bd0154","Domain Abbreviation","DOMAIN","2","Two-character abbreviation for the domain.","Char","Identifier","Req","",""
"527","https://sdtm.d4k.dk/ig/MH/USUBJID","fd5227a3-82ce-4fee-9e58-3eb2e0dd8571","Unique Subject Identifier","USUBJID","3","Identifier used to uniquely identify a subject across all studies for all applications or submissions involving the product.","Char","Identifier","Req","",""
"528","https://sdtm.d4k.dk/ig/MH/MHSEQ","30a189ad-c3b9-4de9-8998-414071a0ff02","Sequence Number","MHSEQ","4","Sequence number given to ensure uniqueness of subject records within a domain. May be any valid number.","Num","Identifier","Req","",""
"529","https://sdtm.d4k.dk/ig/MH/MHGRPID","74de1d5a-8746-4d82-b008-bb5e902ea1f0","Group ID","MHGRPID","5","Used to tie together a block of related records in a single domain for a subject.","Char","Identifier","Perm","",""
"530","https://sdtm.d4k.dk/ig/MH/MHREFID","81c75876-ded6-4efd-a005-0634cf8287a0","Reference ID","MHREFID","6","Internal or external medical history identifier.","Char","Identifier","Perm","",""
"531","https://sdtm.d4k.dk/ig/MH/MHSPID","964ba938-7ceb-438b-a5c8-5186d1823cd3","Sponsor-Defined Identifier","MHSPID","7","Sponsor-defined reference number. May be preprinted on the CRF as an explicit line identifier or defined in the sponsor's operational database. Example: Line number on a Medical History CRF page.","Char","Identifier","Perm","",""
"532","https://sdtm.d4k.dk/ig/MH/MHTERM","6e773f23-2c08-4a8b-ab13-06994dd99183","Reported Term for the Medical History","MHTERM","8","Verbatim or preprinted CRF term for the medical condition or event.","Char","Topic","Req","",""
"533","https://sdtm.d4k.dk/ig/MH/MHMODIFY","20f85c21-b99d-476d-9132-d7ee8bb36684","Modified Reported Term","MHMODIFY","9","If MHTERM is modified to facilitate coding, then MHMODIFY will contain the modified text.","Char","Synonym Qualifier","Perm","",""
"534","https://sdtm.d4k.dk/ig/MH/MHDECOD","def67235-6d5d-4e47-99f3-fa2a98e5041d","Dictionary-Derived Term","MHDECOD","10","Dictionary-derived text description of MHTERM or MHMODIFY. Equivalent to the Preferred Term (PT in MedDRA). The sponsor is expected to provide the dictionary name and version used to map the terms utilizing the external codelist element in the Define-XML document.","Char","Synonym Qualifier","Perm","",""
"535","https://sdtm.d4k.dk/ig/MH/MHEVDTYP","7fc53a8a-3783-4b59-925e-fca416c91279","Medical History Event Date Type","MHEVDTYP","11","Specifies the aspect of the medical condition or event by which MHSTDTC and/or the MHENDTC is defined. Examples: ""DIAGNOSIS"", ""SYMPTOMS"", ""RELAPSE"", ""INFECTION"".","Char","Variable Qualifier","Perm","",""
"536","https://sdtm.d4k.dk/ig/MH/MHCAT","e7eda120-3e46-4451-9599-26aaa55bdfd0","Category for Medical History","MHCAT","12","Used to define a category of related records. Examples: ""CARDIAC"", ""GENERAL"".","Char","Grouping Qualifier","Perm","",""
"537","https://sdtm.d4k.dk/ig/MH/MHSCAT","de9951ac-fdec-4763-9890-aed4fd011f24","Subcategory for Medical History","MHSCAT","13","A further categorization of the condition or event.","Char","Grouping Qualifier","Perm","",""
"538","https://sdtm.d4k.dk/ig/MH/MHPRESP","726e11e1-fac1-4a59-a313-53dd4aa08bb1","Medical History Event Pre-Specified","MHPRESP","14","A value of ""Y"" indicates that this medical history event was prespecified on the CRF. Values are null for spontaneously reported events (i.e., those collected as free-text verbatim terms).","Char","Variable Qualifier","Perm","",""
"539","https://sdtm.d4k.dk/ig/MH/MHOCCUR","be02f74b-93bb-4e77-8f7d-f8ebf2a35e04","Medical History Occurrence","MHOCCUR","15","Used when the occurrence of specific medical history conditions is solicited, to indicate whether (""Y""/""N"") a medical condition (MHTERM) had ever occurred. Values are null for spontaneously reported events.","Char","Record Qualifier","Perm","",""
"540","https://sdtm.d4k.dk/ig/MH/MHSTAT","8c7ed27f-232f-42d3-9ea4-0012cb5d0045","Completion Status","MHSTAT","16","The status indicates that the prespecified question was not asked/answered.","Char","Record Qualifier","Perm","",""
"541","https://sdtm.d4k.dk/ig/MH/MHREASND","a43ee44a-4afa-4c44-b226-4d682fc7c94d","Reason Medical History Not Collected","MHREASND","17","Describes the reason why data for a prespecified condition was not collected. Used in conjunction with MHSTAT when value is ""NOT DONE"".","Char","Record Qualifier","Perm","",""
"542","https://sdtm.d4k.dk/ig/MH/MHBODSYS","f7ea9968-c993-4391-8730-0bcba5b2a424","Body System or Organ Class","MHBODSYS","18","Dictionary-derived. Body system or organ class that is involved in an event or measurement from a standard hierarchy (e.g., MedDRA). When using a multi-axial dictionary such as MedDRA, this should contain the SOC used for the sponsor's analyses and summary tables which may not necessarily be the primary SOC.","Char","Record Qualifier","Perm","",""
"543","https://sdtm.d4k.dk/ig/MH/TAETORD","14c2fa3f-fc59-4aee-a4cc-aae769480943","Planned Order of Element within Arm","TAETORD","19","Number that gives the planned order of the element within the arm for the element in which the assessment was made.","Num","Timing","Perm","",""
"544","https://sdtm.d4k.dk/ig/MH/EPOCH","c2ca0ac4-c787-46e4-955a-77398488d90c","Epoch","EPOCH","20","Epoch associated with the start date/time of the medical history event.","Char","Timing","Perm","",""
"545","https://sdtm.d4k.dk/ig/MH/MHDTC","18c43636-1dad-48c9-ac1a-cd591e91ceeb","Date/Time of History Collection","MHDTC","21","Collection date and time of the medical history observation represented in ISO 8601 character format.","Char","Timing","Perm","ISO 8601 datetime or interval",""
"546","https://sdtm.d4k.dk/ig/MH/MHSTDTC","6689650f-4828-4017-a62d-0a9e0c980a95","Start Date/Time of Medical History Event","MHSTDTC","22","Start date/time of the medical history event represented in ISO 8601 character format.","Char","Timing","Perm","ISO 8601 datetime or interval",""
"547","https://sdtm.d4k.dk/ig/MH/MHENDTC","445b5922-7411-470e-af68-720e59c6bc4d","End Date/Time of Medical History Event","MHENDTC","23","End date/time of the medical history event.","Char","Timing","Perm","ISO 8601 datetime or interval",""
"548","https://sdtm.d4k.dk/ig/MH/MHDY","5c461cac-f719-4830-8a98-c1ec6728a343","Study Day of History Collection","MHDY","24","Study day of medical history collection, measured as integer day. Algorithm for calculations must be relative to the sponsor-defined RFSTDTC variable in Demographics. This formula should be consistent across the submission.","Num","Timing","Perm","",""
"549","https://sdtm.d4k.dk/ig/MH/MHENRF","3f4a8b31-1155-4f40-97bf-fd66dcf3ab1f","End Relative to Reference Period","MHENRF","25","Describes the end of the event relative to the sponsor-defined reference period. The sponsor-defined reference period is a continuous period of time defined by a discrete starting point and a discrete ending point (represented by RFSTDTC and RFENDTC in Demographics). \n Not all values of the codelist are allowable for this variable. See Section 4.4.7, Use of Relative Timing Variables.","Char","Timing","Perm","",""
"550","https://sdtm.d4k.dk/ig/MH/MHENRTPT","ddbc4241-d11a-41df-afa7-247de4d72c20","End Relative to Reference Time Point","MHENRTPT","26","Identifies the end of the event as being before or after the reference time point defined by variable MHENTPT. \n Not all values of the codelist are allowable for this variable. See Section 4.4.7, Use of Relative Timing Variables.","Char","Timing","Perm","",""
"551","https://sdtm.d4k.dk/ig/MH/MHENTPT","53fa4f7b-ee71-412c-812b-dc09c1716f1c","End Reference Time Point","MHENTPT","27","Description or date/time in ISO 8601 character format of the reference point referred to by MHENRTPT. Examples: ""2003-12-25"", ""VISIT 2"".","Char","Timing","Perm","",""
"552","https://sdtm.d4k.dk/ig/BS/STUDYID","4e462f89-6124-4845-a746-bd6d893cfa42","Study Identifier","STUDYID","1","Unique identifier for a study.","Char","Identifier","Req","",""
"553","https://sdtm.d4k.dk/ig/BS/DOMAIN","261c1a28-88ff-4328-b448-7d5a2dfe0ee6","Domain Abbreviation","DOMAIN","2","Two-character abbreviation for the domain.","Char","Identifier","Req","",""
"554","https://sdtm.d4k.dk/ig/BS/USUBJID","20120db1-8881-43ee-bbae-f4a932278b3a","Unique Subject Identifier","USUBJID","3","Identifier used to uniquely identify a subject across all studies for all applications or submissions involving the product.","Char","Identifier","Req","",""
"555","https://sdtm.d4k.dk/ig/BS/SPDEVID","1908b0c3-8bdb-4c60-b688-6b10b8b49a6c","Sponsor Device Identifier","SPDEVID","4","Sponsor-defined identifier for a device.","Char","Identifier","Perm","",""
"556","https://sdtm.d4k.dk/ig/BS/BSSEQ","f8f44ceb-3b88-495d-ab9f-a9b578342ec0","Sequence Number","BSSEQ","5","Sequence number given to ensure uniqueness within a dataset for a subject. May be any valid number (including decimals) and does not have to start at 1.","Num","Identifier","Req","",""
"557","https://sdtm.d4k.dk/ig/BS/BSGRPID","b922badb-e3ea-4dad-85cf-76a6e4bc2446","Group ID","BSGRPID","6","Optional group identifier, used to link together a block of related records within a subject in a domain.","Char","Identifier","Perm","",""
"558","https://sdtm.d4k.dk/ig/BS/BSREFID","4da1c727-ce46-4c10-947a-b90f6f73aad8","Reference ID","BSREFID","7","Internal or external identifier such as lab specimen ID.","Char","Identifier","Exp","",""
"559","https://sdtm.d4k.dk/ig/BS/BSSPID","913a4da5-a6b8-419b-8d20-2be1c851a81f","Sponsor-Defined Identifier","BSSPID","8","Sponsor-defined identifier.","Char","Identifier","Perm","",""
"560","https://sdtm.d4k.dk/ig/BS/BSTESTCD","378e37af-1f8e-40d6-a964-ec24311a59e4","Biospecimen Test Short Name","BSTESTCD","9","Short character value for BSTEST used as a column name when converting a dataset from a vertical format to a horizontal format. The short value can be up to 8 characters. Examples: VOLUME, RIN.","Char","Topic","Req","",""
"561","https://sdtm.d4k.dk/ig/BS/BSTEST","a8348d15-363d-4a3f-bc11-81d07271531f","Biospecimen Test Name","BSTEST","10","Long name for BSTESTCD. Examples: Volume, RNA Integrity Number.","Char","Synonym Qualifier","Req","",""
"562","https://sdtm.d4k.dk/ig/BS/BSCAT","33fd8a47-ca23-421a-9833-6212e3787eea","Category for Biospecimen Test","BSCAT","11","Used to define a category of topic-variable values. Example: MEASUREMENT, QUALITY.","Char","Grouping Qualifier","Exp","",""
"563","https://sdtm.d4k.dk/ig/BS/BSSCAT","a466d782-ad8e-420b-b194-3d0b5ce9087d","Subcategory for Biospecimen Test","BSSCAT","12","Used to define a further categorization of BSCAT values.","Char","Grouping Qualifier","Perm","",""
"564","https://sdtm.d4k.dk/ig/BS/BSORRES","55802ea4-5e2f-497d-a096-5d5552537522","Result or Finding in Original Units","BSORRES","13","Result of the measurement or finding as originally received or collected.","Char","Result Qualifier","Exp","",""
"565","https://sdtm.d4k.dk/ig/BS/BSORRESU","32fd6c3d-d35e-477e-bbb6-5dfbea0b195d","Original Units","BSORRESU","14","Unit for BSORRES. Examples: mg, mL.","Char","Variable Qualifier","Exp","",""
"566","https://sdtm.d4k.dk/ig/BS/BSSTRESC","c997e7b9-6f2d-4914-95a4-242d8b9a835e","Character Result/Finding in Std Format","BSSTRESC","15","Contains the result value for all findings, copied or derived from BSORRES in a standard format or standard units. BSSTRESC should store all results or findings in character format; if results are numeric, they should also be stored in numeric format in BSSTRESN.","Char","Result Qualifier","Exp","",""
"567","https://sdtm.d4k.dk/ig/BS/BSSTRESN","11b8ed15-2554-469e-928f-83a6a1b2b2cf","Numeric Result/Finding in Standard Units","BSSTRESN","16","Used for continuous or numeric results or findings in standard format; copied in numeric format from BSSTRESC. BSSTRESN should store all numeric test results or findings.","Num","Result Qualifier","Exp","",""
"568","https://sdtm.d4k.dk/ig/BS/BSSTRESU","e6a4b1b8-99b5-4f00-b0ff-7c2424ee7c6f","Standard Units","BSSTRESU","17","Standardized unit used for BSSTRESC and BSSTRESN.","Char","Variable Qualifier","Exp","",""
"569","https://sdtm.d4k.dk/ig/BS/BSSTAT","5429a7e7-6e06-48e7-8c52-c73075fd3cc1","Completion Status","BSSTAT","18","Used to indicate that a test was not done, or was attempted but did not generate a result. Should be null or have a value of NOT DONE.","Char","Record Qualifier","Perm","",""
"570","https://sdtm.d4k.dk/ig/BS/BSREASND","aee5b1ec-6d94-46e5-9129-7174cff4486c","Reason Test Not Done","BSREASND","19","Reason not done. Used in conjunction with BSSTAT when value is NOT DONE.","Char","Record Qualifier","Perm","",""
"571","https://sdtm.d4k.dk/ig/BS/BSNAM","e067d81b-3295-4cab-89ce-a7d4ee2d1e66","Vendor Name","BSNAM","20","Name or identifier of the vendor (e.g., laboratory) that provided the test results.","Char","Record Qualifier","Perm","",""
"572","https://sdtm.d4k.dk/ig/BS/BSSPEC","90ec6c7b-320b-4b32-a4ee-2c584b82bc6d","Specimen Type","BSSPEC","21","Defines the type of specimen used for a measurement. Examples: SERUM, PLASMA, URINE, SOFT TISSUE.","Char","Record Qualifier","Perm","",""
"573","https://sdtm.d4k.dk/ig/BS/BSANTREG","27b4debe-539c-46cc-94c3-b2b72cb418c7","Anatomical Region of Specimen","BSANTREG","22","Defines the specific anatomical or biological region of a tissue, organ specimen or the region from which the specimen is obtained, as defined in the protocol, such as a section or part of what is described in the BSSPEC variable. Examples: CORTEX, MEDULLA, MUCOSA.","Char","Variable Qualifier","Perm","",""
"574","https://sdtm.d4k.dk/ig/BS/BSSPCCND","d068d403-94ef-44c9-a143-d3649c9f05ee","Specimen Condition","BSSPCCND","23","Defines the condition of the specimen. Examples: HEMOLYZED, ICTERIC, LIPEMIC.","Char","Record Qualifier","Perm","",""
"575","https://sdtm.d4k.dk/ig/BS/BSMETHOD","1f196cd7-8b90-4ca4-b883-e5b52fc03b7d","Method of Test or Examination","BSMETHOD","24","Method of the test or examination. Examples: SPECTROPHOTOMETRY, ELECTROPHORESIS.","Char","Record Qualifier","Perm","",""
"576","https://sdtm.d4k.dk/ig/BS/BSBLFL","95a34b0b-89b8-49ea-b646-6f264af05554","Baseline Flag","BSBLFL","25","Indicator used to identify a baseline value.","Char","Record Qualifier","Perm","",""
"577","https://sdtm.d4k.dk/ig/BS/VISITNUM","43c93cf9-0e06-4c35-8ac8-e850dc0454c9","Visit Number","VISITNUM","26","Clinical encounter number. Numeric version of VISIT, used for sorting.","Num","Timing","Exp","",""
"578","https://sdtm.d4k.dk/ig/BS/VISIT","a2855bb2-f871-4eb8-b10f-a27cf61b2d27","Visit Name","VISIT","27","Protocol-defined description of clinical encounter.","Char","Timing","Perm","",""
"579","https://sdtm.d4k.dk/ig/BS/VISITDY","6e59eb5c-0931-4f07-8798-bbdb2ed28951","Planned Study Day of Visit","VISITDY","28","Planned study day of VISIT. Should be an integer.","Num","Timing","Perm","",""
"580","https://sdtm.d4k.dk/ig/BS/BSDTC","e5b662f1-e39e-4499-aeeb-d0cfeaa1c490","Date/Time of Specimen Collection","BSDTC","29","Date and time of specimen collection.","Char","Timing","Exp","ISO 8601 datetime or interval",""
"581","https://sdtm.d4k.dk/ig/BS/BSDY","6542dad4-d421-4277-9e4d-5e6316a6b62e","Study Day of Specimen Collection","BSDY","30","Study day of specimen collection relative to the sponsor-defined RFSTDTC.","Num","Timing","Perm","",""
"582","https://sdtm.d4k.dk/ig/BS/BSTPT","3ea4ba62-e306-47c5-9ae8-5db10330db7f","Planned Time Point Name","BSTPT","31","Text description of time when a measurement or observation should be taken as defined in the protocol. This may be represented as an elapsed time relative to a fixed reference point, such as time of last dose. See BSTPTNUM and BSTPTREF.","Char","Timing","Perm","",""
"583","https://sdtm.d4k.dk/ig/BS/BSTPTNUM","92749876-ad53-4f5d-b3f1-9358b73b8cae","Planned Time Point Number","BSTPTNUM","32","Numerical version of BSTPT used in sorting.","Num","Timing","Perm","",""
"584","https://sdtm.d4k.dk/ig/BS/BSELTM","a10c7a94-4faf-49cc-8631-63084df1a76a","Planned Elapsed Time from Time Point Ref","BSELTM","33","Elapsed time relative to a planned fixed reference (BSTPTREF). This variable is useful where there are repetitive measures. Not a clock time or a date time variable, but an interval, represented as ISO duration.","Char","Timing","Perm","ISO 8601 duration",""
"585","https://sdtm.d4k.dk/ig/BS/BSTPTREF","dd2c0e56-40b3-4d74-af85-b34e6a51a2af","Time Point Reference","BSTPTREF","34","Name of the fixed reference point referred to by BSELTM, BSTPTNUM, and BSTPT. Examples: PREVIOUS DOSE, PREVIOUS MEAL.","Char","Timing","Perm","",""
"586","https://sdtm.d4k.dk/ig/BS/BSRFTDTC","a4530197-7abc-4381-9543-3e052f11e45c","Date/Time of Reference Time Point","BSRFTDTC","35","Date/time for a fixed reference time point defined by BSTPTREF.","Char","Timing","Perm","ISO 8601 datetime or interval",""
"587","https://sdtm.d4k.dk/ig/CP/STUDYID","04534de7-4801-4abc-b7ee-8bfc36cf74f9","Study Identifier","STUDYID","1","Unique identifier for a study.","Char","Identifier","Req","",""
"588","https://sdtm.d4k.dk/ig/CP/DOMAIN","82f2a1df-a4cf-4b3a-b184-65156f7298ac","Domain Abbreviation","DOMAIN","2","Two-character abbreviation for the domain.","Char","Identifier","Req","",""
"589","https://sdtm.d4k.dk/ig/CP/USUBJID","a22b1a5e-676a-485a-9eb3-dc4e1f878bda","Unique Subject Identifier","USUBJID","3","Identifier used to uniquely identify a subject across all studies for all applications or submissions involving the product.","Char","Identifier","Req","",""
"590","https://sdtm.d4k.dk/ig/CP/CPSEQ","92b01773-c494-43c8-a519-665796879cae","Sequence Number","CPSEQ","4","Sequence number to ensure uniqueness of subject records within a domain. May be any valid number.","Num","Identifier","Req","",""
"591","https://sdtm.d4k.dk/ig/CP/CPGRPID","13781b69-4ebb-44e5-a466-615f8c458a78","Group ID","CPGRPID","5","Used to tie together a block of related records in a single domain for a subject.","Char","Identifier","Perm","",""
"592","https://sdtm.d4k.dk/ig/CP/CPREFID","d29c5240-dba1-430b-9d57-1d243ebe6ac0","Reference ID","CPREFID","6","Internal or external specimen identifier.","Char","Identifier","Perm","",""
"593","https://sdtm.d4k.dk/ig/CP/CPSPID","b3f2c910-0a38-4bcd-afe7-c58a6e66d258","Sponsor-Defined Identifier","CPSPID","7","Sponsor-defined reference number. May be preprinted on the CRF as an explicit line identifier or defined in the sponsor's operational database. Example: Line number on the lab page.","Char","Identifier","Perm","",""
"594","https://sdtm.d4k.dk/ig/CP/CPLNKID","f1d05316-f197-40a8-aba1-ca4e79b5e033","Link ID","CPLNKID","8","Identifier used to link related records across domains. This may be a one-to-one or a one-to-many relationship.","Char","Identifier","Perm","",""
"595","https://sdtm.d4k.dk/ig/CP/CPLNKGRP","952ac9c7-ebe5-4b47-b8ee-01081ab1226b","Link Group ID","CPLNKGRP","9","Identifier used to link related records across domains. This will usually be a many-to-one relationship.","Char","Identifier","Perm","",""
"596","https://sdtm.d4k.dk/ig/CP/CPTESTCD","e6820ba3-6723-471a-aa88-e948a1ff4f3e","Test or Examination Short Name","CPTESTCD","10","Short name of the measurement, test, or examination described in CPTEST. It can be used as a column name when converting a dataset from a vertical to a horizontal format. The value in CPTESTCD cannot be longer than 8 characters, nor can it start with a number (e.g., ""1TEST"" is not valid). CPTESTCD cannot contain characters other than letters, numbers, or underscores. Examples: ""MONO"", ""MNS"".","Char","Topic","Req","",""
"597","https://sdtm.d4k.dk/ig/CP/CPTEST","b35bd7db-9751-4fe4-8829-428a43b45406","Name of Measurement, Test or Examination","CPTEST","11","Long name for CPTESTCD. For cell phenotyping, the name (often abbreviated) of the cell population, as it is generally accepted by the scientific community, is populated (rather than a colloquial designation based on a primary marker, e.g., TLym Help rather than CD4). When the test is for a sublineage which can only be identified by specifying additional markers (i.e., has not been given a name) or which is further restricted to a subpopulation based on a particular cell state (e.g., activated, proliferating, apoptotic), the Sublineage Marker String (CPSBMRKS), Cell State (CPCELSTA), and Cell State Marker String (CPCSMRKS) variables are additionally populated and the value in CPTEST is suffixed with ""Sub"" to denote that it is a subset of the population identified in CPTEST (e.g., Monocytes Sub). \n The value in CPTEST cannot be longer than 40 characters.","Char","Synonym Qualifier","Req","",""
"598","https://sdtm.d4k.dk/ig/CP/CPSBMRKS","4d34ac53-48a9-4a3d-bc87-d83887ec7003","Sublineage Marker String","CPSBMRKS","12","Used to further subset the cell population identified in CPTEST based on the use of additional marker(s) that define a sublineage. The value in CPSBMRKS is used in combination with values in CPTEST and CPCELSTA to fully describe the cell population being measured. As such, it is an essential component of the full test name. \n For example, three unnamed sublineages of monocytes have been identified as: CCR2+CD16-, CCR2-CD16+, and CCR2+CD16+. Whereas the entire monocyte cell population can be defined as CD14+ cells, the additional CCR2 and CD16 markers are used to differentiate one sublineage from another. As none of these sublineages have been given names, they are only known by the CCR2 and CD16 marker combinations. By associating the CPTEST value of ""Monocytes Sub"" with, for example, a value of ""CCR2+CD16-"" in CPSBMRKS, the full test is defined to be the CCR2+CD16- monocyte subpopulation.","Char","Variable Qualifier","Perm","",""
"599","https://sdtm.d4k.dk/ig/CP/CPCELSTA","41c73adf-e520-47d3-84e4-545b13a80237","Cell State","CPCELSTA","13","A textual description of a subset of the cell population identified in CPTEST based on a particular functional and/or biological state (e.g., ""ACTIVATED"", ""PROLIFERATING"", ""SENESCENT""). When populated, the values in CPCELSTA and CPSMRKS, in combination with the values in CPTEST and CPSBMRKS, fully describe the cell population being measured.","Char","Variable Qualifier","Perm","",""
"600","https://sdtm.d4k.dk/ig/CP/CPCSMRKS","f95e1d01-a85a-46eb-ad52-6b403934e973","Cell State Marker String","CPCSMRKS","14","Identifies the marker(s) or indicator(s) used to define the cell state (i.e., the value in CPCELSTA). \n For example, when Ki67 expression is used to determine that a cell population is in a proliferating state (i.e., CPCELSTA value=""PROLIFERATING""), the value ""Ki67+"" in CPCSMRKS indicates that positive expression of Ki67 was used to define the population as proliferating. Similarly, a value of ""Ki67-"" in CPCSMRKS would indicate that lack of expression of Ki67 defined the ""NON-PROLIFERATING"" cell state in CPCELSTA. The CPCSMRKS value is useful for quickly determining which marker(s) were used to classify (i.e., operationally define) a cell population based on a functional/biological state.","Char","Variable Qualifier","Perm","",""
"601","https://sdtm.d4k.dk/ig/CP/CPTSTCND","0af1704c-5854-4075-9519-c408b96a9234","Test Condition","CPTSTCND","15","Identifies any planned condition imposed by the assay system on the specimen at the time the test is performed. --TSTCND is generally used to distinguish between two or more records where the same assay is performed under varying (as opposed to fixed) conditions, usually for the purpose of making a comparison. For example, when the same assay (identified in --TEST) is performed under stimulated and non-stimulated conditions, the --TSTCND variable is used distinguish between the records.","Char","Variable Qualifier","Perm","",""
"602","https://sdtm.d4k.dk/ig/CP/CPCNDAGT","a360ee13-a483-4197-9500-0153dd0c0321","Test Condition Agent","CPCNDAGT","16","The textual description of the agent, if applicable, used to impose the condition identified in CPTSTCND. For example, records might be produced for the same assay run under stimulating (CPTSTCND value = ""STIMULATED"") conditions produced by different stimulating agents (e.g., phorbol myristate acetate, concanavalin A, PHA-P, TNF-alpha, Ionomycin, candida antigen).","Char","Record Qualifier","Perm","",""
"603","https://sdtm.d4k.dk/ig/CP/CPBDAGNT","b3e5e9a6-ad90-4f38-bd5b-ed1cacbf72b2","Binding Agent","CPBDAGNT","17","The textual description of the agent that is binding to the entity in the CPTEST variable. The CPBDAGNT variable is used to indicate that there is a binding relationship between the entities in the CPTEST and CPBDAGNT variables, regardless of direction. \n The binding agent may be, but is not limited to, a test article; a portion of a test article; a substance related to a test article; an endogenous molecule; an allergen; an infectious agent; or a reagent (e.g., primary antibody) that confers the binding specificity for the measurement defined in CPTEST when it is needed to uniquely identify the test.","Char","Record Qualifier","Perm","",""
"604","https://sdtm.d4k.dk/ig/CP/CPABCLID","9b6ccc15-3b2e-46c0-80b3-00c548c4b109","Antibody Clone Identifier","CPABCLID","18","Identifies the antibody clone (e.g., supplier-provided catalog name) used to confer specificity for the binding agent specified in CPBDAGNT.","Char","Record Qualifier","Perm","",""
"605","https://sdtm.d4k.dk/ig/CP/CPMRKSTR","2f631cde-1a13-442f-ae35-a20e7f465dc1","Marker String","CPMRKSTR","19","The text string identifying the full set of markers/indicators used by the laboratory to operationally define the complete test based on the combination of CPTEST, CPSBMRKS, and CPCELSTA. Because laboratories often use different markers/indicators to identify a cell population, the relationship between a named cell population in CPTEST (as combined with CPSBMRKS and CPCELSTA values) and the set of markers used to identify that population is many-to-one. To ensure nuances important for accurately interpreting the data are accounted for and which arise from the use of different sets of markers, it is necessary to operationally define the test in terms of the complete set of markers/indicators used to perform that test.","Char","Record Qualifier","Exp","",""
"606","https://sdtm.d4k.dk/ig/CP/CPGATE","9f529a3d-f283-4711-999e-ad751e9fbba3","Gate","CPGATE","20","The sponsor-defined name assigned to a gate. Gates are electronic (i.e., a device setting or software-defined) boundaries set by a user to virtually parse a specimen into discrete populations based on a set of defined characteristics (e.g., presence, absence, or intensity of expression of various markers; physical size; internal complexity or granularity). Gates are used to constrain data collection or analysis to a specific cell population or region of interest within the specimen.","Char","Record Qualifier","Perm","",""
"607","https://sdtm.d4k.dk/ig/CP/CPGATDEF","cabaec32-73ff-4c88-98b0-046f1a0f8f48","Gate Definition","CPGATDEF","21","The text string identifying the set of parameters and the order in which they are applied to define the gating strategy. In practice, a series of 2-dimensional sub-gates based on different cell characteristics (i.e., markers/indicators/physical properties) are most often combined until the cell population of interest is sufficiently resolved (i.e., electronically isolated) from other cell populations contained within the specimen. \n For complex analyses, differences in gating strategies can produce subtle differences in results obtained for a test. To ensure nuances important for accurately interpreting the data are accounted for and which arise from the use of different gating strategies, it is often necessary to qualify the test in terms of the gating strategy. For some purposes, however, and at the discretion of the sponsor, only the ultimate or penultimate gate is identified. When specifying the gating strategy in CPGATDEF, each sub-gate should be listed in the order it was applied and separated from the next sub-gate using the pipe/vertical line (""|"") character.","Char","Record Qualifier","Perm","",""
"608","https://sdtm.d4k.dk/ig/CP/CPSPTSTD","46e8ee34-e245-4977-9483-16583e593ca0","Sponsor Test Description","CPSPTSTD","22","Sponsor's description of a test. The variable is intended to contain highly structured test description metadata used by a sponsor to unambiguously define (label) a test. Such values generally reside in a sponsor/laboratory test metadata repository. CPSPTSTD is not intended for unstructured (spontaneous) free text. \n An example of appropriate usage is when it is necessary to include identifying information for a target cell population on which a test is conducted when the target population is not part of the test name, e.g., tests for quantitative expression of a particular marker on a specific cell population.","Char","Record Qualifier","Perm","",""
"609","https://sdtm.d4k.dk/ig/CP/CPCAT","14b8592a-de8b-4727-a581-81900168b1e5","Category","CPCAT","23","Used to define a category of topic-variable values across subjects. Examples: ""IMMUNOPHENOTYPING"", ""CELL FUNCTION"", ""TARGET ENGAGEMENT"".","Char","Grouping Qualifier","Perm","",""
"610","https://sdtm.d4k.dk/ig/CP/CPSCAT","6a736069-4e13-43db-9ac0-97a089385439","Subcategory","CPSCAT","24","A further categorization of CPCAT.","Char","Grouping Qualifier","Perm","",""
"611","https://sdtm.d4k.dk/ig/CP/CPTSTPNL","82a964ee-2826-43f0-9c30-7185dfa58759","Test Panel","CPTSTPNL","25","Sponsor-defined textual description used to group tests run together as part of a test panel. Can be used with --GRPID to ensure that relationships between associated tests are accurately identified.","Char","Grouping Qualifier","Perm","",""
"612","https://sdtm.d4k.dk/ig/CP/CPORRES","bb639167-9304-46bf-8d34-b1925a7ec817","Result or Finding in Original Units","CPORRES","26","Result of the measurement or finding as originally received or collected.","Char","Result Qualifier","Exp","",""
"613","https://sdtm.d4k.dk/ig/CP/CPORRESU","b4945e36-f211-4354-9f58-5a368f266969","Original Units","CPORRESU","27","Original units in which the data were collected. The unit for CPORRES. Examples: ""10^6/L"", ""%"", ""MESF"".","Char","Variable Qualifier","Perm","",""
"614","https://sdtm.d4k.dk/ig/CP/CPRESSCL","f8b3eadf-0eb0-4b0e-89ad-9b4de5357442","Result Scale","CPRESSCL","28","Classifies the scale of the original result value with respect to whether the result is quantitative, ordinal, nominal, or narrative.","Char","Record Qualifier","Perm","",""
"615","https://sdtm.d4k.dk/ig/CP/CPRESTYP","c4983ac3-458d-40d6-9ab5-ec8754c26a86","Result Type","CPRESTYP","29","Classifies the kind of result (i.e., property type) originally reported for the test. Examples: ""NUMBER CONCENTRATION"", ""NUMBER FRACTION"", ""RATIO"".","Char","Record Qualifier","Perm","",""
"616","https://sdtm.d4k.dk/ig/CP/CPCOLSRT","021ecf37-67f2-467b-aa41-7bc61a66a9b3","Collected Summary Result Type","CPCOLSRT","30","Used to indicate the type of collected summary result. This includes source summary results collected on a CRF or provided by an external vendor (e.g., central lab). If the summary result is derived using individual source data records, this summary result should be represented in ADaM. If a sponsor has both a collected summary result and a derived summary result, the collected summary result should be represented in SDTM and the derived summary result should be represented in ADaM.","Char","Record Qualifier","Perm","",""
"617","https://sdtm.d4k.dk/ig/CP/CPORNRLO","278af4a7-ab22-4724-91e3-a5747bdc7b78","Reference Range Lower Limit in Orig Unit","CPORNRLO","31","Lower end of reference range for continuous measurement in original units. Should be populated only for continuous results.","Char","Variable Qualifier","Perm","",""
"618","https://sdtm.d4k.dk/ig/CP/CPORNRHI","1df8a95e-32b5-4d29-b392-36b1f7e736ef","Reference Range Upper Limit in Orig Unit","CPORNRHI","32","Upper end of reference range for continuous measurement in original units. Should be populated only for continuous results.","Char","Variable Qualifier","Perm","",""
"619","https://sdtm.d4k.dk/ig/CP/CPSTRESC","50410730-5359-4b1b-9dbf-d8211fb86c71","Result or Finding in Standard Format","CPSTRESC","33","Contains the result value for all findings, copied or derived from CPORRES in a standard format or in standard units. CPSTRESC should store all results or findings in character format; if results are numeric, they should also be stored in numeric format in CPSTRESN.","Char","Result Qualifier","Exp","",""
"620","https://sdtm.d4k.dk/ig/CP/CPSTRESN","a60a8ef5-5bb0-4889-b2c2-9636eeb1fbbc","Numeric Result/Finding in Standard Units","CPSTRESN","34","Used for continuous or numeric results or findings in standard format; copied in numeric format from CPSTRESC. CPSTRESN should store all numeric test results or findings.","Num","Result Qualifier","Perm","",""
"621","https://sdtm.d4k.dk/ig/CP/CPSTRESU","6008d0ab-8766-4b69-a51b-0f81a03d3663","Standard Units","CPSTRESU","35","Standardized unit used for CPSTRESC or CPSTRESN.","Char","Variable Qualifier","Perm","",""
"622","https://sdtm.d4k.dk/ig/CP/CPSTNRLO","e7e04f5f-ad8e-4c65-a6e4-da8f14bbc4a7","Reference Range Lower Limit-Std Units","CPSTNRLO","36","Lower end of reference range for continuous measurements for CPSTRESC/CPSTRESN in standardized units. Should be populated only for continuous results.","Num","Variable Qualifier","Perm","",""
"623","https://sdtm.d4k.dk/ig/CP/CPSTNRHI","1abae1fe-c9a4-4087-a690-e607959a849c","Reference Range Upper Limit-Std Units","CPSTNRHI","37","Upper end of reference range for continuous measurements in standardized units. Should be populated only for continuous results.","Num","Variable Qualifier","Perm","",""
"624","https://sdtm.d4k.dk/ig/CP/CPNRIND","8ded28a4-55bb-4762-b7d6-d588418b806e","Reference Range Indicator","CPNRIND","38","Indicates where the value falls with respect to reference range defined by CPORNRLO and CPORNRHI, CPSTNRLO and CPSTNRHI, or by CPSTNRC. Examples: ""NORMAL"", ""ABNORMAL"", ""HIGH"", ""LOW"". Sponsors should specify in the study metadata (Comments column in the Define-XML document) whether CPNRIND refers to the original or standard reference ranges and results. CPNRIND should not be used to indicate clinical significance.","Char","Variable Qualifier","Perm","",""
"625","https://sdtm.d4k.dk/ig/CP/CPSTAT","5d774a04-70bf-4cb8-8063-73b8fef6f046","Completion Status","CPSTAT","39","Used to indicate that the test was not performed or that it was attempted but did not generate a result. Should be null if a result exists in CPORRES.","Char","Record Qualifier","Perm","",""
"626","https://sdtm.d4k.dk/ig/CP/CPREASND","207c79a0-0962-499c-9af1-e2d4aca3bad9","Reason Not Done","CPREASND","40","Describes why a test was not performed, e.g., ""BROKEN EQUIPMENT"", ""SUBJECT REFUSED"", ""SPECIMEN LOST"". Used in conjunction with CPSTAT when value is ""NOT DONE"".","Char","Record Qualifier","Perm","",""
"627","https://sdtm.d4k.dk/ig/CP/CPNAM","8b0db209-299a-4f9d-b090-1055b06f0258","Vendor Name","CPNAM","41","The name or identifier of the laboratory that performed the test.","Char","Record Qualifier","Perm","",""
"628","https://sdtm.d4k.dk/ig/CP/CPLOINC","3251115d-a351-4f02-af02-0348b0aeb244","LOINC Code","CPLOINC","42","Code for the test from the LOINC code system. The sponsor is expected to provide the dictionary name and version used to map the terms utilizing the Define-XML external codelist attributes.","Char","Synonym Qualifier","Perm","LOINC",""
"629","https://sdtm.d4k.dk/ig/CP/CPSPEC","cbadd16d-6efa-45ea-a7f5-b0db3b22db52","Specimen Type","CPSPEC","43","Defines the type of specimen used for a measurement. Examples: ""BLOOD"", ""BONE MARROW"".","Char","Record Qualifier","Perm","",""
"630","https://sdtm.d4k.dk/ig/CP/CPSPCCND","cbad0f13-cf13-48be-b2d9-09ed6bb44fe7","Specimen Condition","CPSPCCND","44","The physical state or quality of a specimen for an assessment. Example: ""CLOTTED"".","Char","Record Qualifier","Perm","",""
"631","https://sdtm.d4k.dk/ig/CP/CPMETHOD","9bea0bca-9fe8-4241-8064-63690885d373","Method of Test or Examination","CPMETHOD","45","Method of the test or examination. Example: ""FLOW CYTOMETRY"".","Char","Record Qualifier","Perm","",""
"632","https://sdtm.d4k.dk/ig/CP/CPANMETH","6a259c58-c63c-4b8c-9ca1-8011e52c42a4","Analysis Method","CPANMETH","46","Analysis method applied to obtain a summarized result. Analysis method describes the method of secondary processing applied to a complex observation result.","Char","Record Qualifier","Perm","",""
"633","https://sdtm.d4k.dk/ig/CP/CPLOBXFL","ac52af0d-0ca0-4e0c-8760-360ce87b2526","Last Observation Before Exposure Flag","CPLOBXFL","47","Operationally-derived indicator used to identify the last non-missing value prior to RFXSTDTC. The value should be ""Y"" or null.","Char","Record Qualifier","Perm","",""
"634","https://sdtm.d4k.dk/ig/CP/CPBLFL","13834af8-4497-402e-847a-1a88fb9d145f","Baseline Flag","CPBLFL","48","Indicator used to identify a baseline value. The value should be ""Y"" or null.","Char","Record Qualifier","Perm","",""
"635","https://sdtm.d4k.dk/ig/CP/CPDRVFL","e00c4fb1-2279-45d1-bdbe-a0e32b007da4","Derived Flag","CPDRVFL","49","Used to indicate a derived record. The value should be ""Y"" or null. Records that represent the average of other records, or do not come from the CRF, or are not as originally received or collected are examples of records that might be derived for the submission datasets. If CPDRVFL = ""Y"", then CPORRES may be null, with CPSTRESC and (if numeric) CPSTRESN having the derived value.","Char","Record Qualifier","Perm","",""
"636","https://sdtm.d4k.dk/ig/CP/CPCLSIG","21bb1b43-97bf-41e3-abab-7aeabb9a8484","Clinically Significant, Collected","CPCLSIG","50","Used to indicate whether a collected observation is clinically significant based on judgement.","Char","Record Qualifier","Perm","",""
"637","https://sdtm.d4k.dk/ig/CP/VISITNUM","29a3257a-e3cc-48c0-a23b-e228ebc269cf","Visit Number","VISITNUM","51","Clinical encounter number. Numeric version of VISIT, used for sorting.","Num","Timing","Perm","",""
"638","https://sdtm.d4k.dk/ig/CP/VISIT","f65cb61a-4c27-4dd6-aa6b-f49fd14e3b83","Visit Name","VISIT","52","Protocol-defined description of clinical encounter. May be used in addition to VISITNUM and/or VISITDY.","Char","Timing","Perm","",""
"639","https://sdtm.d4k.dk/ig/CP/VISITDY","65837241-faa7-4c76-9e0a-21a757777e8c","Planned Study Day of Visit","VISITDY","53","Planned study day of the visit based upon RFSTDTC in Demographics. Should be an integer.","Num","Timing","Perm","",""
"640","https://sdtm.d4k.dk/ig/CP/TAETORD","7f7ffc06-bab5-4219-a043-a89a4f5521f8","Planned Order of Element within Arm","TAETORD","54","Number that gives the planned order of the element within the arm.","Num","Timing","Perm","",""
"641","https://sdtm.d4k.dk/ig/CP/EPOCH","23ad29f1-9e01-4f0f-893f-fe6102aa0f83","Epoch","EPOCH","55","Epoch associated with the start date/time of the observation, or the date/time of collection if start date/time is not collected.","Char","Timing","Perm","",""
"642","https://sdtm.d4k.dk/ig/CP/CPDTC","f76a6157-8e31-4589-946a-bda2073e5fb0","Date/Time of Collection","CPDTC","56","Date/time of specimen collection represented in ISO 8601 character format.","Char","Timing","Exp","ISO 8601 datetime or interval",""
"643","https://sdtm.d4k.dk/ig/CP/CPDY","75f763d9-f424-4112-97c4-fe34a68fc5d5","Study Day of Visit/Collection/Exam","CPDY","57","Study day of specimen collection, measured in integer days. Algorithm for calculations must be relative to the sponsor-defined RFSTDTC value in Demographics.","Num","Timing","Perm","",""
"644","https://sdtm.d4k.dk/ig/CP/CPTPT","5bbdbbda-7674-4689-9659-8800bd1dae85","Planned Time Point Name","CPTPT","58","Text description of time when a specimen is to be taken, as defined in the protocol. This may be represented as an elapsed time relative to a fixed reference point (i.e., to the value in CPTPTREF). Example: ""1 hour post"".","Char","Timing","Perm","",""
"645","https://sdtm.d4k.dk/ig/CP/CPTPTNUM","00578942-ea63-4c7b-9db4-2abfcd9852cf","Planned Time Point Number","CPTPTNUM","59","Numerical version of CPTPT to aid in sorting. When CPTPT is represented as an elapsed time relative to a fixed reference point (i.e., to the value in CPTPTREF), the values in CPTPTNUM should be assigned in ascending order relative to the value in CPTPTREF. For example, records for time points where CPTPT = ""5 minutes post"", 1 hour post"", and ""4 hours post"" could be represented in CPTPTNUM as ""1"", ""2"", and ""3"", which maintains the order between CPTPT and CPTPTNUM with respect to the fixed time point reference in CPTPTREF.","Num","Timing","Perm","",""
"646","https://sdtm.d4k.dk/ig/CP/CPELTM","c5ace83d-1c44-431d-a083-fb7a4a21f10c","Planned Elapsed Time from Time Point Ref","CPELTM","60","Planned elapsed time relative to the planned fixed reference value in CPTPTREF, represented in ISO 8601 duration format. Examples: ""-PT15M"" to represent 15 minutes prior to the reference time point indicated by CPTPTREF, ""T8H"" to represent 8 hours after the reference time point represented by CPTPTREF.","Char","Timing","Perm","ISO 8601 duration",""
"647","https://sdtm.d4k.dk/ig/CP/CPTPTREF","cfe22b34-697b-493a-99b8-8edb9d46028e","Time Point Reference","CPTPTREF","61","Descriptive name of the fixed reference point referred to by CPTPT, CPTPTNUM, and CPELTM. Examples: ""PREVIOUS DOSE"", ""PREVIOUS MEAL"".","Char","Timing","Perm","",""
"648","https://sdtm.d4k.dk/ig/CP/CPRFTDTC","1510de06-08fe-4032-8ee9-9017f82b736d","Date/Time of Reference Time Point","CPRFTDTC","62","Date/time for a fixed reference time point defined by CPTPTREF.","Char","Timing","Perm","ISO 8601 datetime or interval",""
"649","https://sdtm.d4k.dk/ig/CV/STUDYID","9818eb8f-8da4-40f5-8690-1f99c00b13c3","Study Identifier","STUDYID","1","Unique identifier for a study.","Char","Identifier","Req","",""
"650","https://sdtm.d4k.dk/ig/CV/DOMAIN","5781fbd4-94fb-4f70-8347-d65ebed77799","Domain Abbreviation","DOMAIN","2","Two-character abbreviation for the domain.","Char","Identifier","Req","",""
"651","https://sdtm.d4k.dk/ig/CV/USUBJID","9faf22e8-262f-4b76-b75d-9391332b1c15","Unique Subject Identifier","USUBJID","3","Identifier used to uniquely identify a subject across all studies for all applications or submissions involving the product.","Char","Identifier","Req","",""
"652","https://sdtm.d4k.dk/ig/CV/CVSEQ","601e24ab-3a26-4508-ae18-2fa4a8fcdf74","Sequence Number","CVSEQ","4","Sequence number to ensure uniqueness of records within a dataset for a subject. May be any valid number (including decimals) and does not have to start at 1.","Num","Identifier","Req","",""
"653","https://sdtm.d4k.dk/ig/CV/CVGRPID","5f03b4f4-becf-4fc1-9543-561ca92630aa","Group ID","CVGRPID","5","Optional group identifier, used to link together a block of related records within a subject in a domain.","Char","Identifier","Perm","",""
"654","https://sdtm.d4k.dk/ig/CV/CVREFID","8c7f3c7e-3ec8-4ac8-b66d-dacaad24543b","Reference ID","CVREFID","6","Optional internal or external identifier.","Char","Identifier","Perm","",""
"655","https://sdtm.d4k.dk/ig/CV/CVSPID","93933b01-1f88-41e2-a84c-e56773e0bf07","Sponsor-Defined Identifier","CVSPID","7","Sponsor-defined identifier. Example: a preprinted line identifier on a CRF.","Char","Identifier","Perm","",""
"656","https://sdtm.d4k.dk/ig/CV/CVLNKID","5bb273de-584a-4164-a77f-066204ef11ff","Link ID","CVLNKID","8","Identifier used to link related records across domains. This may be a one-to-one or a one-to-many relationship.","Char","Identifier","Perm","",""
"657","https://sdtm.d4k.dk/ig/CV/CVLNKGRP","c91e265e-7147-4dfb-b1a2-eb36f56bb83e","Link Group","CVLNKGRP","9","Identifier used to link related records across domains. This will usually be a many-to-one relationship.","Char","Identifier","Perm","",""
"658","https://sdtm.d4k.dk/ig/CV/CVTESTCD","fe00d380-6078-41e7-ac8d-279f447265a4","Short Name of Cardiovascular Test","CVTESTCD","10","Short name of the measurement, test, or examination described in CVTEST. It can be used as a column name when converting a dataset from a vertical to a horizontal format. The value in CVTESTCD cannot be longer than 8 characters, nor can it start with a number (e.g., ""1TEST"" would not be valid). CVTESTCD cannot contain characters other than letters, numbers, or underscores.","Char","Topic","Req","",""
"659","https://sdtm.d4k.dk/ig/CV/CVTEST","e04d71e0-64aa-4d02-afc4-772d4c1340b7","Name of Cardiovascular Test","CVTEST","11","Long name For CVTESTCD. The value in CVTEST cannot be longer than 40 characters.","Char","Synonym Qualifier","Req","",""
"660","https://sdtm.d4k.dk/ig/CV/CVCAT","a1d133e2-16b4-48ea-9ddc-0428f0f6cc20","Category for Cardiovascular Test","CVCAT","12","Used to define a category of topic-variable values.","Char","Grouping Qualifier","Perm","",""
"661","https://sdtm.d4k.dk/ig/CV/CVSCAT","d7c373f7-d0fd-4e84-9152-0a8342349b07","Subcategory for Cardiovascular Test","CVSCAT","13","Used to define a further categorization of CVCAT values.","Char","Grouping Qualifier","Perm","",""
"662","https://sdtm.d4k.dk/ig/CV/CVPOS","e2906e47-a979-40f5-b730-52fd6bb18c88","Position of Subject During Observation","CVPOS","14","Position of the subject during a measurement or examination. Examples: ""SUPINE"", ""STANDING"", ""SITTING"".","Char","Record Qualifier","Perm","",""
"663","https://sdtm.d4k.dk/ig/CV/CVORRES","74df92f3-30a7-40f1-b059-1dcc787568fa","Result or Finding in Original Units","CVORRES","15","Result of the measurement or finding as originally received or collected.","Char","Result Qualifier","Exp","",""
"664","https://sdtm.d4k.dk/ig/CV/CVORRESU","9c75f2d6-a805-4181-b9b9-fd5281b75b2f","Original Units","CVORRESU","16","Original units in which the data were collected. Unit for CVORRES.","Char","Variable Qualifier","Perm","",""
"665","https://sdtm.d4k.dk/ig/CV/CVSTRESC","e2028cf3-9dae-4175-9603-d364e6d48337","Character Result/Finding in Std Format","CVSTRESC","17","Contains the result value for all findings, copied or derived, from CVORRES in a standard format or in standard units. CVSTRESC should store all results or findings in character format; if results are numeric, they should also be stored in numeric format in CVSTRESN. For example, if various tests have results ""NONE"", ""NEG"", and ""NEGATIVE"" in CVORRES and these results effectively have the same meaning, they could be represented in standard format in CVSTRESC as ""NEGATIVE"".","Char","Result Qualifier","Exp","",""
"666","https://sdtm.d4k.dk/ig/CV/CVSTRESN","f4f4f60a-3e3d-4e8b-8ed7-87a9afe2d620","Numeric Result/Finding in Standard Units","CVSTRESN","18","Used for continuous or numeric results or findings in standard format; copied in numeric format from CVSTRESC. CVSTRESN should store all numeric test results or findings.","Num","Result Qualifier","Perm","",""
"667","https://sdtm.d4k.dk/ig/CV/CVSTRESU","c09848b0-318f-47dd-95bd-63a587e2214b","Standard Units","CVSTRESU","19","Standardized units used for CVSTRESC and CVSTRESN.","Char","Variable Qualifier","Perm","",""
"668","https://sdtm.d4k.dk/ig/CV/CVSTAT","7fe88a5a-a098-4d23-bf8a-09ec002705dd","Completion Status","CVSTAT","20","Used to indicate that a question was not asked or a test was not done, or a test was attempted but did not generate a result. Should be null or have a value of ""NOT DONE"".","Char","Record Qualifier","Perm","",""
"669","https://sdtm.d4k.dk/ig/CV/CVREASND","8d40fc14-903c-4195-86f1-dbb9eae37c7f","Reason Not Done","CVREASND","21","Describes why a measurement or test was not performed (e.g., ""BROKEN EQUIPMENT"", ""SUBJECT REFUSED""). Used in conjunction with CVSTAT when value is ""NOT DONE"".","Char","Record Qualifier","Perm","",""
"670","https://sdtm.d4k.dk/ig/CV/CVLOC","09e83bf5-6ca6-4e4b-9ddd-87271b2a6618","Location Used for the Measurement","CVLOC","22","Anatomical location of the subject relevant to the collection of the measurement. Examples: ""HEART"", ""LEFT VENTRICLE"".","Char","Record Qualifier","Perm","",""
"671","https://sdtm.d4k.dk/ig/CV/CVLAT","99feb15b-04ef-4e75-9f01-c34cc4ad01c8","Laterality","CVLAT","23","Qualifier for anatomical location or specimen further detailing laterality. Examples: ""RIGHT"", ""LEFT"", ""BILATERAL"", ""UNILATERAL"".","Char","Variable Qualifier","Perm","",""
"672","https://sdtm.d4k.dk/ig/CV/CVDIR","ed7fc285-43d5-43a0-9378-685391bafc03","Directionality","CVDIR","24","Qualifier for anatomical location or specimen further detailing directionality. Examples: ""ANTERIOR"", ""LOWER"", ""PROXIMAL"".","Char","Variable Qualifier","Perm","",""
"673","https://sdtm.d4k.dk/ig/CV/CVMETHOD","50eb30ce-8c3a-4ea4-85a5-3b9cb5a2c9ca","Method of Test or Examination","CVMETHOD","25","Method used to create the result.","Char","Record Qualifier","Perm","",""
"674","https://sdtm.d4k.dk/ig/CV/CVLOBXFL","60e8ae0e-ca8f-422d-968f-846ca2bc14a2","Last Observation Before Exposure Flag","CVLOBXFL","26","Operationally-derived indicator used to identify the last non-missing value prior to RFXSTDTC. The value should be ""Y"" or null.","Char","Record Qualifier","Exp","",""
"675","https://sdtm.d4k.dk/ig/CV/CVBLFL","4ce78afd-a029-4448-9a8b-1f4995cb582f","Baseline Flag","CVBLFL","27","Indicator used to identify a baseline value. Should be ""Y"" or null. Note that CVBLFL is retained for backward compatibility. The authoritative baseline for statistical analysis is in an ADaM dataset.","Char","Record Qualifier","Perm","",""
"676","https://sdtm.d4k.dk/ig/CV/CVDRVFL","e3c95287-c798-4f13-b034-3bfb12e31717","Derived Flag","CVDRVFL","28","Used to indicate a derived record (i.e., a record that represents the average of other records, such as a computed baseline). Should be ""Y"" or null.","Char","Record Qualifier","Perm","",""
"677","https://sdtm.d4k.dk/ig/CV/CVEVAL","4003c37b-749e-4b1e-86d3-0f7817fe85e4","Evaluator","CVEVAL","29","Role of the person who provided the evaluation. Used only for results that are subjective (e.g., assigned by a person or a group). Examples: ""ADJUDICATION COMMITTEE"", "" INDEPENDENT ASSESSOR"", ""RADIOLOGIST"".","Char","Record Qualifier","Perm","",""
"678","https://sdtm.d4k.dk/ig/CV/CVEVALID","1358ad39-efe6-4787-a92a-83c0637a6f19","Evaluator Identifier","CVEVALID","30","Used to distinguish multiple evaluators with the same role recorded in CVEVAL. Examples: ""RADIOLOGIST1"" or ""RADIOLOGIST2"".","Char","Variable Qualifier","Perm","",""
"679","https://sdtm.d4k.dk/ig/CV/VISITNUM","0e0fd1b0-5d52-487d-aa7d-b6680326af70","Visit Number","VISITNUM","31","Clinical encounter number. Numeric version of VISIT, used for sorting.","Num","Timing","Exp","",""
"680","https://sdtm.d4k.dk/ig/CV/VISIT","1c0c55e5-d6fc-4dcd-8301-c07f46123bba","Visit Name","VISIT","32","Protocol-defined description of clinical encounter. May be used in addition to VISITNUM and/or VISITDY.","Char","Timing","Perm","",""
"681","https://sdtm.d4k.dk/ig/CV/VISITDY","e8edc6d5-3aa1-4d1c-98d6-35ebeaaef4d2","Planned Study Day of Visit","VISITDY","33","Planned study day of VISIT. Should be an integer.","Num","Timing","Perm","",""
"682","https://sdtm.d4k.dk/ig/CV/TAETORD","788b63be-b86c-4dee-b1de-554dd35fbea7","Planned Order of Element within Arm","TAETORD","34","Number that gives the planned order of the element within the arm for the element in which the assessment was made.","Num","Timing","Perm","",""
"683","https://sdtm.d4k.dk/ig/CV/EPOCH","b07faaf9-cb1e-4d4e-8cdf-8341693f8860","Epoch","EPOCH","35","Epoch associated with the date/time at which the assessment was made.","Char","Timing","Perm","",""
"684","https://sdtm.d4k.dk/ig/CV/CVDTC","85e2ce3a-bfb2-4e19-b396-cfefcfbfa9d2","Date/Time of Test","CVDTC","36","Collection date and time of an observation.","Char","Timing","Exp","ISO 8601 datetime or interval",""
"685","https://sdtm.d4k.dk/ig/CV/CVDY","8d00eb6e-53f1-4187-8fa5-8d18fa0189ec","Study Day of Visit/Collection/Exam","CVDY","37","Actual study day of visit/collection/exam expressed in integer days relative to the sponsor-defined RFSTDTC in Demographics.","Num","Timing","Perm","",""
"686","https://sdtm.d4k.dk/ig/CV/CVTPT","346e826b-140e-4207-8f3e-731995c2c1e9","Planned Time Point Name","CVTPT","38","Text description of time when a measurement or observation should be taken, as defined in the protocol. This may be represented as an elapsed time relative to a fixed reference point, such as time of last dose. See CVTPTNUM and CVTPTREF.","Char","Timing","Perm","",""
"687","https://sdtm.d4k.dk/ig/CV/CVTPTNUM","54a78bc8-00d8-48d3-abe1-08e58dff7524","Planned Time Point Number","CVTPTNUM","39","Numeric version of planned time point used in sorting.","Num","Timing","Perm","",""
"688","https://sdtm.d4k.dk/ig/CV/CVELTM","66c0c116-95e0-4fc9-8502-4d3eacc7acfc","Planned Elapsed Time from Time Point Ref","CVELTM","40","Planned elapsed time relative to a planned fixed reference (CVTPTREF). Examples: ""PREVIOUS DOSE"", ""PREVIOUS MEAL"". This variable is useful where there are repetitive measures. Not a clock time or a date/time variable, but an interval, represented as ISO duration.","Char","Timing","Perm","ISO 8601 duration",""
"689","https://sdtm.d4k.dk/ig/CV/CVTPTREF","03356884-490b-453a-b10e-681565b34013","Time Point Reference","CVTPTREF","41","Description of the fixed reference point referred to by CVELTM, CVTPTNUM, and CVTPT. Examples: ""PREVIOUS DOSE"", ""PREVIOUS MEAL"".","Char","Timing","Perm","",""
"690","https://sdtm.d4k.dk/ig/CV/CVRFTDTC","771e07b4-fba1-4c3c-83f7-05cc6dfd2cf5","Date/Time of Reference Time Point","CVRFTDTC","42","Date/time for a fixed reference time point defined by CVTPTREF.","Char","Timing","Perm","ISO 8601 datetime or interval",""
"691","https://sdtm.d4k.dk/ig/DA/STUDYID","8476e79c-ec41-49be-9bbc-e44e47099821","Study Identifier","STUDYID","1","Unique identifier for a study within the submission.","Char","Identifier","Req","",""
"692","https://sdtm.d4k.dk/ig/DA/DOMAIN","a5665ea1-770c-4015-a87c-16f774058e99","Domain Abbreviation","DOMAIN","2","Two-character abbreviation for the domain.","Char","Identifier","Req","",""
"693","https://sdtm.d4k.dk/ig/DA/USUBJID","7b1f8be9-a3f6-4a7b-b742-647a7ada7f7f","Unique Subject Identifier","USUBJID","3","Identifier used to uniquely identify a subject across all studies for all applications or submissions involving the product.","Char","Identifier","Req","",""
"694","https://sdtm.d4k.dk/ig/DA/DASEQ","b1e2bac6-c5bc-46d9-94f1-8dd432c46087","Sequence Number","DASEQ","4","Sequence number given to ensure uniqueness of subject records within a domain. May be any valid number.","Num","Identifier","Req","",""
"695","https://sdtm.d4k.dk/ig/DA/DAGRPID","14dc4532-699c-465b-9637-ca83856c8cf2","Group ID","DAGRPID","5","Used to tie together a block of related records in a single domain for a subject.","Char","Identifier","Perm","",""
"696","https://sdtm.d4k.dk/ig/DA/DAREFID","38ba2b96-e268-4050-8865-4be03537fa06","Reference ID","DAREFID","6","Optional internal or external identifier such as a code from the product packaging (e.g., bottle label, package label, kit label).","Char","Identifier","Perm","",""
"697","https://sdtm.d4k.dk/ig/DA/DASPID","382b28be-451f-4fac-b5ee-8316bcacedd0","Sponsor-Defined Identifier","DASPID","7","Sponsor-defined reference number. May be preprinted on the CRF as an explicit line identifier or defined in the sponsor's operational database. Examples: Line number on the Product Accountability CRF page, a code from the product packaging (e.g., bottle label, package label, kit label).","Char","Identifier","Perm","",""
"698","https://sdtm.d4k.dk/ig/DA/DALNKID","a48b38e7-9a7c-440e-9961-2f639ad1272f","Link ID","DALNKID","8","Identifier used to link related records across domains. This may be a one-to-one or a one-to-many relationship.","Char","Identifier","Perm","",""
"699","https://sdtm.d4k.dk/ig/DA/DALNKGRP","fc13b318-7ea7-478b-bbb2-d3a1130115fc","Link Group ID","DALNKGRP","9","Identifier used to link related records across domains. This will usually be a many-to-one relationship.","Char","Identifier","Perm","",""
"700","https://sdtm.d4k.dk/ig/DA/DATESTCD","8e94cf4c-d5dd-4de9-b7c3-a209e92d9a36","Short Name of Accountability Assessment","DATESTCD","10","Short character value for DATEST used as a column name when converting a dataset from a vertical format to a horizontal format. The short value can be up to 8 characters and cannot begin with a number or contain characters other than letters, numbers, or underscores. Examples: ""DISPAMT"", ""RETAMT"".","Char","Topic","Req","",""
"701","https://sdtm.d4k.dk/ig/DA/DATEST","a23213f2-52b2-43f9-8750-6eb182b9e385","Name of Accountability Assessment","DATEST","11","Verbatim name corresponding to the topic variable of the test or examination used to obtain the product accountability assessment. The value in DATEST cannot be longer than 40 characters. Examples: ""Dispensed Amount"", ""Returned Amount"".","Char","Synonym Qualifier","Req","",""
"702","https://sdtm.d4k.dk/ig/DA/DACAT","3f6b5f96-c53d-4d33-ac96-6a7c890cdf03","Category","DACAT","12","Used to define a category of topic-variable values. Examples: ""STUDY MEDICATION"", ""RESCUE MEDICATION"".","Char","Grouping Qualifier","Perm","",""
"703","https://sdtm.d4k.dk/ig/DA/DASCAT","a07907c5-5185-4252-a8fe-7c2865306412","Subcategory","DASCAT","13","Used to define a further categorization level for a group of related records.","Char","Grouping Qualifier","Perm","",""
"704","https://sdtm.d4k.dk/ig/DA/DAORRES","480c57c2-0f79-48da-b3fd-ad18d2857bf9","Result or Finding in Original Units","DAORRES","14","Result of the product accountability assessment as originally received or collected.","Char","Result Qualifier","Exp","",""
"705","https://sdtm.d4k.dk/ig/DA/DAORRESU","8a79f775-30ca-4822-b575-4f6ae9459473","Original Units","DAORRESU","15","Unit for DAORRES.","Char","Variable Qualifier","Perm","",""
"706","https://sdtm.d4k.dk/ig/DA/DASTRESC","ec892bd4-2e40-4288-8e10-a0ef8d8cde7c","Result or Finding in Standard Format","DASTRESC","16","Contains the result value for all product accountability assessments copied or derived from DAORRES, in a standard format or in standard units. DASTRESC should store all results or findings in character format; if results are numeric, they should also be stored in numeric format in DASTRESN.","Char","Result Qualifier","Exp","",""
"707","https://sdtm.d4k.dk/ig/DA/DASTRESN","f997b9ea-dd24-4a2b-ba21-efa60c51a323","Numeric Result/Finding in Standard Units","DASTRESN","17","Used for continuous or numeric results or findings in standard format; copied in numeric format from DASTRESC. DASTRESN should store all numeric test results or findings.","Num","Result Qualifier","Perm","",""
"708","https://sdtm.d4k.dk/ig/DA/DASTRESU","75d297b9-87aa-4f61-b955-271288b9bae0","Standard Units","DASTRESU","18","Standardized units used for DASTRESC and DASTRESN.","Char","Variable Qualifier","Perm","",""
"709","https://sdtm.d4k.dk/ig/DA/DASTAT","fd7148d1-d974-485e-9259-05b09ae38aef","Completion Status","DASTAT","19","Used to indicate that a product accountability assessment was not done. Should be null or have a value of ""NOT DONE"".","Char","Record Qualifier","Perm","",""
"710","https://sdtm.d4k.dk/ig/DA/DAREASND","a1d40ede-bdcd-4298-810e-c1e9f48329d9","Reason Not Done","DAREASND","20","Reason not done. Used in conjunction with DASTAT when value is ""NOT DONE"".","Char","Record Qualifier","Perm","",""
"711","https://sdtm.d4k.dk/ig/DA/VISITNUM","9ed36a76-9bff-40de-89ba-981d4a40b54b","Visit Number","VISITNUM","21","Clinical encounter number. Numeric version of VISIT, used for sorting.","Num","Timing","Exp","",""
"712","https://sdtm.d4k.dk/ig/DA/VISIT","6be5cd4e-d340-4f65-962a-d6fde9c5c2b9","Visit Name","VISIT","22","Protocol-defined description of a clinical encounter. May be used in addition to VISITNUM and/or VISITDY.","Char","Timing","Perm","",""
"713","https://sdtm.d4k.dk/ig/DA/VISITDY","bb8609ac-918c-4b3d-9279-ceef38f48bbb","Planned Study Day of Visit","VISITDY","23","Planned study day of the visit, based upon RFSTDTC in Demographics.","Num","Timing","Perm","",""
"714","https://sdtm.d4k.dk/ig/DA/TAETORD","949885e4-5ef2-40d9-a7f0-55f7bed86d77","Planned Order of Element within Arm","TAETORD","24","Number that gives the planned order of the element within the arm (see Section 7.2.1, Trial Arms).","Num","Timing","Perm","",""
"715","https://sdtm.d4k.dk/ig/DA/EPOCH","faab12a8-0cd9-4a02-98d7-8a6a67dbec9c","Epoch","EPOCH","25","Epoch associated with the start date/time of the observation, or the date/time of collection if start date/time is not collected.","Char","Timing","Perm","",""
"716","https://sdtm.d4k.dk/ig/DA/DADTC","81b0b2c8-75b3-44bb-8cce-fc5b97090f3a","Date/Time of Collection","DADTC","26","Date and time of the product accountability assessment represented in ISO 8601 character format.","Char","Timing","Exp","ISO 8601 datetime or interval",""
"717","https://sdtm.d4k.dk/ig/DA/DADY","053e5558-f148-4b8a-9b3c-e09e6fc5a5b8","Study Day of Visit/Collection/Exam","DADY","27","Study day of product accountability assessment, measured in integer days. Algorithm for calculations must be relative to the sponsor-defined RFSTDTC in Demographics.","Num","Timing","Perm","",""
"718","https://sdtm.d4k.dk/ig/DD/STUDYID","2a5c60af-10b0-4481-a08b-730f776883f2","Study Identifier","STUDYID","1","Unique identifier for a study.","Char","Identifier","Req","",""
"719","https://sdtm.d4k.dk/ig/DD/DOMAIN","ca8a6906-e2e4-4a8d-bfef-906f112bff7e","Domain Abbreviation","DOMAIN","2","Two-character abbreviation for the domain.","Char","Identifier","Req","",""
"720","https://sdtm.d4k.dk/ig/DD/USUBJID","19b4d80b-d240-4b4d-b016-2e1036daa3d5","Unique Subject Identifier","USUBJID","3","Identifier used to uniquely identify a subject across all studies for all applications or submissions involving the product.","Char","Identifier","Req","",""
"721","https://sdtm.d4k.dk/ig/DD/DDSEQ","65318936-7ab3-4f0f-9ad1-35ddfa63153a","Sequence Number","DDSEQ","4","Sequence number given to ensure uniqueness of subject records within a domain. May be any valid number.","Num","Identifier","Req","",""
"722","https://sdtm.d4k.dk/ig/DD/DDTESTCD","c78a2c3d-61b9-4d07-bd90-69f0b80d04bf","Death Detail Assessment Short Name","DDTESTCD","5","Short name of the measurement, test, or examination described in DDTEST. It can be used as a column name when converting a dataset from a vertical to a horizontal format. The value in DDTESTCD cannot be longer than 8 characters, nor can it start with a number (e.g., ""1TEST"" is not valid). DDTESTCD cannot contain characters other than letters, numbers, or underscores. Examples: ""PRCDTH"", ""SECDTH"".","Char","Topic","Req","",""
"723","https://sdtm.d4k.dk/ig/DD/DDTEST","077915cc-6a65-47d3-8694-0878792d1647","Death Detail Assessment Name","DDTEST","6","Long name for DDTESTCD. The value in DDTEST cannot be longer than 40 characters. Examples: ""Primary Cause of Death"", ""Secondary Cause of Death"".","Char","Synonym Qualifier","Req","",""
"724","https://sdtm.d4k.dk/ig/DD/DDORRES","71c6afd7-08fb-4032-8987-7ef9f9fe4cf5","Result or Finding as Collected","DDORRES","7","Result of the test defined in DDTEST, as originally received or collected.","Char","Result Qualifier","Exp","",""
"725","https://sdtm.d4k.dk/ig/DD/DDSTRESC","1c8995e1-798e-4bc6-88d6-778f68a72f6a","Character Result/Finding in Std Format","DDSTRESC","8","Contains the result or finding copied or derived from DDORRES in a standard format.","Char","Result Qualifier","Exp","",""
"726","https://sdtm.d4k.dk/ig/DD/DDRESCAT","6c163b83-0498-445d-a6ec-09c42143a0ed","Result Category","DDRESCAT","9","Used to categorize the result of a finding. Examples: ""TREATMENT RELATED"", ""NONTREATMENT RELATED"", ""UNDETERMINED"", ""ACCIDENTAL"".","Char","Variable Qualifier","Perm","",""
"727","https://sdtm.d4k.dk/ig/DD/DDEVAL","e27e5114-be19-4ebe-b5ba-d473d3b194f7","Evaluator","DDEVAL","10","Role of the person who provided the evaluation.","Char","Record Qualifier","Perm","",""
"728","https://sdtm.d4k.dk/ig/DD/DDDTC","a0f53375-004d-468e-b7d4-6faabf4b87e5","Date/Time of Collection","DDDTC","11","Date/time of collection of the diagnosis or other death assessment data in ISO 8601 format. This is not necessarily the date of death.","Char","Timing","Exp","ISO 8601 datetime or interval",""
"729","https://sdtm.d4k.dk/ig/DD/DDDY","c7774085-e513-470a-82d9-ece91962649b","Study Day of Collection","DDDY","12","Study day of the collection, in integer days. The algorithm for calculations must be relative to the sponsor-defined RFSTDTC variable in the Demographics (DM) domain.","Num","Timing","Perm","",""
"730","https://sdtm.d4k.dk/ig/EG/STUDYID","4a1867ea-a354-49d0-a402-94d1a4f952f3","Study Identifier","STUDYID","1","Unique identifier for a study.","Char","Identifier","Req","",""
"731","https://sdtm.d4k.dk/ig/EG/DOMAIN","c000583e-76f9-434d-ae7a-964481369b6b","Domain Abbreviation","DOMAIN","2","Two-character abbreviation for the domain.","Char","Identifier","Req","",""
"732","https://sdtm.d4k.dk/ig/EG/USUBJID","e2d7191f-937a-4107-bb38-969f8f2ba1df","Unique Subject Identifier","USUBJID","3","Identifier used to uniquely identify a subject across all studies for all applications or submissions involving the product.","Char","Identifier","Req","",""
"733","https://sdtm.d4k.dk/ig/EG/SPDEVID","b180dd3c-2c10-4dec-907f-9fb542b38569","Sponsor Device Identifier","SPDEVID","4","Sponsor-defined identifier for a device.","Char","Identifier","Perm","",""
"734","https://sdtm.d4k.dk/ig/EG/EGSEQ","eb569238-e461-4428-8d6d-5b4a8b621532","Sequence Number","EGSEQ","5","Sequence number given to ensure uniqueness of subject records within a domain. May be any valid number.","Num","Identifier","Req","",""
"735","https://sdtm.d4k.dk/ig/EG/EGGRPID","7385273c-c4ab-4f44-9683-0624146f4a68","Group ID","EGGRPID","6","Used to tie together a block of related records in a single domain for a subject.","Char","Identifier","Perm","",""
"736","https://sdtm.d4k.dk/ig/EG/EGREFID","6dd57744-62c6-4c3b-b494-fb41f1b8778b","ECG Reference ID","EGREFID","7","Internal or external ECG identifier. Example: ""334PT89"".","Char","Identifier","Perm","",""
"737","https://sdtm.d4k.dk/ig/EG/EGSPID","32d6410d-ed42-4a88-8df3-4b671ddb1482","Sponsor-Defined Identifier","EGSPID","8","Sponsor-defined reference number. May be printed on the CRF as an explicit line identifier or defined in the sponsor's operational database. Example: Line number on the ECG page.","Char","Identifier","Perm","",""
"738","https://sdtm.d4k.dk/ig/EG/EGBEATNO","e7020388-ebf6-4d14-9b2a-134461be7d1d","ECG Beat Number","EGBEATNO","9","A sequence number that identifies the beat within an ECG.","Num","Identifier","Perm","",""
"739","https://sdtm.d4k.dk/ig/EG/EGTESTCD","7f260ab1-5e6c-448d-af19-459fe988e37d","ECG Test or Examination Short Name","EGTESTCD","10","Short name of the measurement, test, or examination described in EGTEST. It can be used as a column name when converting a dataset from a vertical to a horizontal format. The value in EGTESTCD cannot be longer than 8 characters, nor can it start with a number (e.g., ""1TEST"" is not valid). EGTESTCD cannot contain characters other than letters, numbers, or underscores. Examples: ""PRAG"", ""QRSAG"". \n Test codes are in 2 separate codelists, 1 for tests based on regular 10-second ECGs (EGTESTCD) and one 1 tests based on Holter monitoring (HETESTCD).","Char","Topic","Req","",""
"740","https://sdtm.d4k.dk/ig/EG/EGTEST","c68dafca-0ed2-4e1d-adb5-9d080b0c48d4","ECG Test or Examination Name","EGTEST","11","Verbatim name of the test or examination used to obtain the measurement or finding. The value in EGTEST cannot be longer than 40 characters. Examples: ""PR Interval, Aggregate"", ""QRS Duration, Aggregate"". \n Test names are in 2 separate codelists, 1 for tests based on regular 10-second ECGs (EGTEST) and 1 for tests based on Holter monitoring (HETEST).","Char","Synonym Qualifier","Req","",""
"741","https://sdtm.d4k.dk/ig/EG/EGCAT","dd67a17c-559a-4c53-8bb9-aaf171bb6946","Category for ECG","EGCAT","12","Used to categorize ECG observations across subjects. Examples: ""MEASUREMENT"", ""FINDING"", ""INTERVAL"".","Char","Grouping Qualifier","Perm","",""
"742","https://sdtm.d4k.dk/ig/EG/EGSCAT","1d7f3d7b-dccb-4799-b07e-21ceafcbc97b","Subcategory for ECG","EGSCAT","13","A further categorization of the ECG.","Char","Grouping Qualifier","Perm","",""
